"Time (s)","Linear Acceleration x (m/s^2)","Linear Acceleration y (m/s^2)","Linear Acceleration z (m/s^2)"
6.125621000E-2,2.079567909E0,-5.477600098E-1,3.934803009E-1
6.632339800E-2,2.131193876E0,-8.225927353E-1,6.763525009E-1
7.140527300E-2,2.090100050E0,-1.206877708E0,1.006910324E0
7.649865800E-2,1.902062893E0,-1.608352661E0,1.114936829E0
8.159865800E-2,1.657883883E0,-1.918422699E0,1.115504265E0
8.669865800E-2,1.383615851E0,-2.182129860E0,1.070437431E0
9.179865800E-2,1.113089561E0,-2.391437054E0,1.041900635E0
9.684652300E-2,7.969592810E-1,-2.511346817E0,9.580516815E-1
1.018642830E-1,4.741898775E-1,-2.629351139E0,7.898721695E-1
1.068819920E-1,1.915335655E-1,-2.673503399E0,6.088695526E-1
1.118997000E-1,-4.734110832E-2,-2.661610126E0,4.057617188E-1
1.169174080E-1,-2.882168293E-1,-2.601248741E0,2.129287720E-1
1.219351170E-1,-4.874339104E-1,-2.476481438E0,8.897876740E-2
1.269528250E-1,-6.028096676E-1,-2.335541725E0,-2.003097534E-2
1.319705330E-1,-6.390399933E-1,-2.211170197E0,-6.433105469E-2
1.369882420E-1,-5.626971722E-1,-2.070194244E0,-1.661996841E-1
1.420059500E-1,-3.725669384E-1,-1.880312443E0,-4.252510071E-1
1.470236580E-1,-1.770479679E-1,-1.674596310E0,-8.735027313E-1
1.520413670E-1,4.925179482E-2,-1.544845104E0,-1.417694569E0
1.570590750E-1,2.384126186E-1,-1.478250027E0,-1.916965485E0
1.620767830E-1,4.586561918E-1,-1.499457836E0,-2.299900532E0
1.670944920E-1,7.195582390E-1,-1.521156788E0,-2.613183022E0
1.721122000E-1,1.016281128E0,-1.583775997E0,-2.934641361E0
1.771299080E-1,1.348815799E0,-1.633547306E0,-3.228452206E0
1.821476170E-1,1.647536039E0,-1.627634525E0,-3.431701660E0
1.871653250E-1,1.555494189E0,-1.771160126E0,-3.608669758E0
1.921830330E-1,1.287856579E0,-1.896289825E0,-3.677298069E0
1.972007420E-1,9.742035270E-1,-1.974955559E0,-3.636605740E0
2.022184500E-1,8.530174494E-1,-1.919494629E0,-3.480268002E0
2.072361580E-1,1.090908647E0,-1.910125732E0,-3.360935688E0
2.122538670E-1,1.514208555E0,-1.982151508E0,-3.320690632E0
2.172715750E-1,1.912419796E0,-2.044094563E0,-3.227516651E0
2.222892830E-1,2.090252399E0,-2.128679752E0,-3.087327957E0
2.273069920E-1,2.128282547E0,-2.151401997E0,-2.975501060E0
2.323247000E-1,2.306649685E0,-2.132882118E0,-2.876466751E0
2.373424080E-1,2.375348091E0,-2.074715137E0,-2.695119858E0
2.423601170E-1,2.178535938E0,-2.011425972E0,-2.563068390E0
2.473778250E-1,1.848631620E0,-1.915741444E0,-2.651726246E0
2.523955330E-1,1.552605391E0,-1.859000206E0,-2.853030205E0
2.574132420E-1,1.332025528E0,-1.821904182E0,-2.873635769E0
2.624310020E-1,1.231996775E0,-1.733930588E0,-2.932744026E0
2.674487620E-1,1.198569417E0,-1.652582169E0,-3.095149040E0
2.724665230E-1,1.179011464E0,-1.690545559E0,-3.236726284E0
2.774842830E-1,1.097964168E0,-1.742397785E0,-3.249692440E0
2.825020440E-1,9.988263845E-1,-1.775125027E0,-3.225583553E0
2.875198040E-1,9.240510464E-1,-1.812677383E0,-3.160251617E0
2.925375640E-1,8.165049553E-1,-1.793934822E0,-3.073074818E0
2.975553250E-1,7.516254187E-1,-1.762268066E0,-2.983123302E0
3.025730850E-1,7.142979503E-1,-1.769677162E0,-2.847978115E0
3.075908460E-1,6.895377636E-1,-1.796851158E0,-2.686958790E0
3.126086060E-1,6.911097765E-1,-1.796349525E0,-2.561624050E0
3.176263670E-1,7.039741278E-1,-1.787633896E0,-2.424037457E0
3.226441270E-1,7.087421417E-1,-1.752028942E0,-2.288393497E0
3.276618870E-1,7.523522377E-1,-1.732520580E0,-2.159135342E0
3.326796480E-1,7.584673166E-1,-1.762017727E0,-2.035933495E0
3.376974080E-1,7.512532473E-1,-1.825690269E0,-1.928001404E0
3.427151690E-1,7.356467843E-1,-1.876212597E0,-1.830012798E0
3.477329290E-1,7.026821375E-1,-1.899734020E0,-1.741665363E0
3.527506890E-1,6.764724851E-1,-1.887533188E0,-1.619981766E0
3.577684500E-1,6.430006027E-1,-1.859088898E0,-1.498314381E0
3.627862100E-1,6.593587399E-1,-1.876072407E0,-1.334016800E0
3.678039710E-1,7.013056874E-1,-1.862243652E0,-1.193764210E0
3.728217310E-1,7.353056669E-1,-1.822517395E0,-1.049036980E0
3.778394920E-1,7.278041840E-1,-1.789897919E0,-8.955001831E-1
3.828572520E-1,6.834692955E-1,-1.749780178E0,-7.429809570E-1
3.878750120E-1,5.881042480E-1,-1.692403793E0,-6.673965454E-1
3.928927730E-1,4.609464407E-1,-1.603440285E0,-6.302437782E-1
3.979105330E-1,3.304069936E-1,-1.492346287E0,-6.408247948E-1
4.029282940E-1,1.918424666E-1,-1.382809162E0,-6.656088829E-1
4.079460540E-1,2.182245255E-2,-1.283999920E0,-6.951651573E-1
4.129638140E-1,-8.464279771E-2,-1.195676804E0,-7.247667313E-1
4.179815750E-1,-2.464142442E-1,-8.385038376E-1,-6.835513115E-1
4.229993350E-1,-5.533977151E-1,-2.724537849E-1,-5.770540237E-1
4.280170960E-1,-9.717816710E-1,3.295092583E-1,-4.010572433E-1
4.330348560E-1,-1.453570366E0,8.437161446E-1,-2.269873619E-1
4.380526170E-1,-1.861225605E0,1.223546028E0,-1.651525497E-2
4.430703770E-1,-2.267255068E0,1.546053886E0,2.633786201E-1
4.480881370E-1,-2.587530613E0,1.849583149E0,6.357860565E-1
4.531058980E-1,-2.700754166E0,2.110441685E0,9.342370033E-1
4.581236580E-1,-2.557035923E0,2.229557514E0,1.084007263E0
4.631414190E-1,-2.177232742E0,2.199028492E0,1.120001316E0
4.681591790E-1,-1.524554491E0,2.025445461E0,1.138111115E0
4.731769390E-1,-7.758856416E-1,1.838616371E0,1.199843884E0
4.781947000E-1,-7.776468992E-2,1.653329849E0,1.290208817E0
4.832124600E-1,4.530177116E-1,1.479237080E0,1.295094013E0
4.882302210E-1,9.138182402E-1,1.326084614E0,1.300341606E0
4.932479810E-1,1.325434923E0,1.345629215E0,1.338863850E0
4.982657420E-1,1.504426479E0,1.493668079E0,1.410189152E0
5.032835020E-1,1.482145429E0,1.697989941E0,1.423813820E0
5.083012620E-1,1.260468245E0,1.887007713E0,1.437133789E0
5.133190230E-1,7.460044026E-1,2.260064125E0,1.497475147E0
5.183367830E-1,1.248729825E-1,2.450369835E0,1.699027061E0
5.233545440E-1,-3.007979989E-1,2.677708149E0,2.073564053E0
5.283723040E-1,-6.679954529E-1,2.965516090E0,2.277740955E0
5.333900640E-1,-1.139946222E0,3.360611916E0,2.355812073E0
5.384078250E-1,-1.479286194E0,3.577338696E0,2.190407753E0
5.434255850E-1,-1.672911644E0,3.811745644E0,1.893019199E0
5.484433460E-1,-1.688824892E0,3.959353447E0,1.649810791E0
5.534611060E-1,-1.566922665E0,4.068346024E0,1.569393158E0
5.584788670E-1,-1.423895001E0,4.295496941E0,1.787849426E0
5.634966270E-1,-1.252531528E0,4.231760025E0,1.903594971E0
5.685143870E-1,-9.872583151E-1,3.970211506E0,1.864989758E0
5.735321480E-1,-7.047918439E-1,3.617332458E0,1.772768021E0
5.785499080E-1,-4.138153791E-1,3.278812885E0,1.650790691E0
5.835676690E-1,-1.133534908E-1,2.921926022E0,1.674460411E0
5.885854290E-1,2.402970791E-1,2.533295631E0,1.747030735E0
5.936031890E-1,6.432142258E-1,2.090068817E0,1.881905079E0
5.986209500E-1,1.043972254E0,1.602575779E0,2.097369671E0
6.036387100E-1,1.438942909E0,1.066794872E0,2.364092350E0
6.086564710E-1,1.791247368E0,5.306825638E-1,2.686515331E0
6.136742310E-1,2.055020094E0,3.189182281E-2,2.908013821E0
6.186919920E-1,2.256106615E0,-4.113340378E-1,3.082250118E0
6.237097520E-1,2.281811476E0,-7.715392113E-1,3.267262459E0
6.287275120E-1,2.185810089E0,-1.064560890E0,3.501902580E0
6.337452730E-1,2.011346340E0,-1.211228848E0,3.592063427E0
6.387630330E-1,1.834569454E0,-1.294703960E0,3.620842457E0
6.437807940E-1,1.640616894E0,-1.354665756E0,3.570807457E0
6.487985540E-1,1.405701876E0,-1.378436089E0,3.325031757E0
6.538163140E-1,1.191962242E0,-1.410269737E0,3.052299976E0
6.588340750E-1,1.003819942E0,-1.441693783E0,2.767913342E0
6.638518350E-1,8.457557559E-1,-1.483225346E0,2.444198132E0
6.688695960E-1,7.411149144E-1,-1.587683678E0,2.067603111E0
6.738873560E-1,7.038567662E-1,-1.693349361E0,1.676867962E0
6.789051170E-1,6.911784410E-1,-1.785971642E0,1.191149712E0
6.839228770E-1,7.413876057E-1,-1.955865860E0,7.012333870E-1
6.889406370E-1,8.591176867E-1,-2.140310764E0,1.924519539E-1
6.939583980E-1,1.082334638E0,-2.333981991E0,-2.642741203E-1
6.989761580E-1,1.320163608E0,-2.545737743E0,-6.889142990E-1
7.039939190E-1,1.354218602E0,-2.755665302E0,-1.063445568E0
7.090116790E-1,1.347606301E0,-2.963149548E0,-1.265213966E0
7.140294390E-1,1.362063050E0,-3.081971645E0,-1.505194187E0
7.190472000E-1,1.411495924E0,-3.164257050E0,-1.817106247E0
7.240649600E-1,1.420064807E0,-3.204780579E0,-2.172687531E0
7.290827210E-1,1.412550569E0,-3.274512768E0,-2.491572380E0
7.341004810E-1,1.413547873E0,-3.382226229E0,-2.812774658E0
7.391182420E-1,1.372081757E0,-3.451098680E0,-3.279787540E0
7.441360020E-1,1.356893182E0,-3.471590281E0,-3.759284496E0
7.491537620E-1,1.354975820E0,-3.448257208E0,-4.190364361E0
7.541715230E-1,1.386318445E0,-3.447329760E0,-4.503089905E0
7.591892830E-1,1.403259993E0,-3.387017727E0,-4.608889103E0
7.642070440E-1,1.333882213E0,-3.248145580E0,-4.657150745E0
7.692248040E-1,1.054126620E0,-2.964095116E0,-4.658220291E0
7.742425640E-1,5.783494711E-1,-2.620978832E0,-4.655469894E0
7.792603250E-1,6.846976280E-2,-2.309444427E0,-4.577465057E0
7.842780850E-1,-4.385873079E-1,-2.062670231E0,-4.490889549E0
7.892958460E-1,-8.630356193E-1,-1.894622326E0,-4.404932022E0
7.943136060E-1,-1.253863096E0,-1.781146049E0,-4.333488941E0
7.993313670E-1,-1.574046493E0,-1.741234779E0,-4.218828201E0
8.043491270E-1,-1.848702908E0,-1.684311867E0,-4.084481239E0
8.093668870E-1,-2.088755608E0,-1.601252556E0,-3.896695137E0
8.143846480E-1,-2.247868299E0,-1.606652737E0,-3.660093307E0
8.194024080E-1,-2.232549191E0,-1.695514679E0,-3.331589699E0
8.244201690E-1,-2.125460386E0,-1.782160282E0,-3.053874254E0
8.294379290E-1,-1.960586309E0,-1.810103893E0,-2.868817806E0
8.344556890E-1,-1.704572678E0,-1.770968914E0,-2.713234901E0
8.394734500E-1,-1.433402658E0,-1.651569843E0,-2.524474144E0
8.444912100E-1,-1.146304369E0,-1.548404694E0,-2.321032524E0
8.495089710E-1,-8.808149695E-1,-1.443064690E0,-2.140397072E0
8.545267310E-1,-6.550645828E-1,-1.283728600E0,-1.977221966E0
8.595444920E-1,-4.730925262E-1,-1.094910622E0,-1.854838371E0
8.645622520E-1,-3.393565416E-1,-9.007349014E-1,-1.782347202E0
8.695800120E-1,-2.632579207E-1,-7.201919556E-1,-1.859465122E0
8.745977730E-1,-2.207568288E-1,-5.955328941E-1,-2.071558475E0
8.796154810E-1,-2.259728312E-1,-4.732060432E-1,-2.328302383E0
8.846331890E-1,-2.740961313E-1,-3.237476349E-1,-2.544660091E0
8.896508980E-1,-3.222588003E-1,-1.703138351E-1,-2.712179184E0
8.946686060E-1,-3.848913312E-1,-1.211166382E-2,-2.798683882E0
8.996863140E-1,-4.191054106E-1,1.514348984E-1,-2.824338675E0
9.047040230E-1,-4.204882085E-1,2.873578072E-1,-2.799433470E0
9.097217310E-1,-3.987171352E-1,3.675165176E-1,-2.705523729E0
9.147394390E-1,-3.681306243E-1,4.018630981E-1,-2.509813309E0
9.197571480E-1,-3.099255264E-1,4.429488182E-1,-2.222275257E0
9.247748560E-1,-2.386864126E-1,4.906463623E-1,-1.838526726E0
9.297925640E-1,-1.734405458E-1,6.065082550E-1,-1.439680099E0
9.348102730E-1,-1.566779315E-1,7.468042374E-1,-1.110991955E0
9.398279810E-1,-1.542242467E-1,8.917570114E-1,-8.419179916E-1
9.448456890E-1,-1.796481013E-1,1.050336361E0,-5.744247437E-1
9.498633980E-1,-1.849803925E-1,1.169555187E0,-3.031406403E-1
9.548811060E-1,-2.180678248E-1,1.249190807E0,-6.090831757E-2
9.598988140E-1,-2.169429362E-1,1.341708660E0,1.287941933E-1
9.649165230E-1,-2.345668674E-1,1.475493908E0,2.902541161E-1
9.699342310E-1,-2.091222405E-1,1.554994106E0,3.856201172E-1
9.749519390E-1,-1.504617333E-1,1.547177792E0,4.295072556E-1
9.799696480E-1,-9.713217616E-2,1.495561600E0,4.934406281E-1
9.849873560E-1,-2.562180161E-2,1.415026665E0,5.864591599E-1
9.900050640E-1,4.948866367E-2,1.344059467E0,7.034044266E-1
9.950227730E-1,1.043452621E-1,1.301926613E0,9.248495102E-1
1.000040481E0,1.816995740E-1,1.331521511E0,1.221515179E0
1.005058189E0,2.287129164E-1,1.403957367E0,1.597747803E0
1.010075898E0,2.307471037E-1,1.528542042E0,2.067492962E0
1.015093606E0,1.924228668E-1,1.695382595E0,2.525617123E0
1.020111314E0,1.185643673E-1,1.875273228E0,2.877373219E0
1.025129023E0,7.130071521E-2,2.048512936E0,3.128710270E0
1.030146731E0,3.654327989E-2,2.209855080E0,3.280697823E0
1.035164492E0,4.784414172E-2,2.382772923E0,3.296160698E0
1.040182252E0,7.681176066E-2,2.552639008E0,3.252312183E0
1.045200012E0,1.188058555E-1,2.700413704E0,3.049373150E0
1.050217773E0,1.978523433E-1,2.778935909E0,2.749631882E0
1.055235533E0,2.662900686E-1,2.851046562E0,2.467298508E0
1.060253294E0,3.095903695E-1,2.969686985E0,2.254186630E0
1.065271054E0,3.221818805E-1,3.092342854E0,2.047391415E0
1.070288814E0,3.174856603E-1,3.072089672E0,1.750669479E0
1.075306575E0,2.426400483E-1,3.029668808E0,1.372930527E0
1.080324335E0,1.406710744E-1,2.942734241E0,8.938655853E-1
1.085342096E0,7.435441017E-2,2.736713886E0,3.454976082E-1
1.090359856E0,5.429682136E-2,2.451726437E0,-1.354513168E-1
1.095377617E0,-2.261897922E-2,2.265686989E0,-5.365834236E-1
1.100395377E0,-9.208905697E-2,1.973843098E0,-7.877011299E-1
1.105413137E0,-1.521162093E-1,1.605531216E0,-6.754059792E-1
1.110430898E0,-1.874288917E-1,1.118203163E0,-6.306648254E-2
1.115448658E0,-3.122249246E-1,6.546716690E-1,7.954702377E-1
1.120466419E0,-6.739346981E-1,5.283575058E-1,1.481166363E0
1.125484179E0,-1.038411975E0,3.691849709E-1,2.292399883E0
1.130501939E0,-1.258805037E0,9.465456009E-2,3.082962990E0
1.135519700E0,-1.360363960E0,-3.060894012E-1,3.750323296E0
1.140537460E0,-1.377567530E0,-7.437391281E-1,4.263737679E0
1.145555221E0,-1.406514406E0,-1.115092278E0,4.601980686E0
1.150572981E0,-1.400008202E0,-1.398360729E0,4.843811035E0
1.155590742E0,-1.349383712E0,-1.595396519E0,4.948061466E0
1.160608502E0,-1.298149109E0,-1.722109795E0,4.892488956E0
1.165626262E0,-1.298997521E0,-1.712915897E0,4.716521263E0
1.170644023E0,-1.351927996E0,-1.554542065E0,4.325527668E0
1.175661783E0,-1.462060690E0,-1.395607471E0,3.954051018E0
1.180679544E0,-1.577794671E0,-1.283317089E0,3.496546745E0
1.185697304E0,-1.676473856E0,-1.163967609E0,2.866480350E0
1.190715064E0,-1.716141462E0,-1.040916443E0,2.115613461E0
1.195732825E0,-1.716910958E0,-9.506311417E-1,1.323866367E0
1.200750585E0,-1.674839377E0,-9.199275970E-1,5.946993828E-1
1.205768346E0,-1.599645495E0,-9.329152107E-1,-1.449942589E-1
1.210786106E0,-1.520030618E0,-9.451279640E-1,-8.822259903E-1
1.215803867E0,-1.402039409E0,-9.506773949E-1,-1.527539253E0
1.220821627E0,-1.302339792E0,-9.821276665E-1,-2.077413082E0
1.225839387E0,-1.124576449E0,-1.086455822E0,-2.513801098E0
1.230857148E0,-8.490970135E-1,-1.210426331E0,-2.761381149E0
1.235874908E0,-4.997461736E-1,-1.329711914E0,-2.854726791E0
1.240892669E0,8.918792009E-3,-1.439156532E0,-2.756720066E0
1.245910429E0,3.185915053E-1,-1.529231548E0,-2.606445789E0
1.250928189E0,3.924615681E-1,-1.585900784E0,-2.346660137E0
1.255945950E0,4.229635596E-1,-1.609864712E0,-2.105969906E0
1.260963710E0,4.394603968E-1,-1.625733376E0,-1.907476902E0
1.265981471E0,4.566650391E-1,-1.658133030E0,-1.669165134E0
1.270999231E0,4.602678418E-1,-1.598093510E0,-1.380846500E0
1.276016992E0,3.685631156E-1,-1.503729343E0,-1.089866161E0
1.281034752E0,2.858305573E-1,-1.499583244E0,-8.005661964E-1
1.286052512E0,2.018206269E-1,-1.547470570E0,-6.318230629E-1
1.291070273E0,1.405174583E-1,-1.609640598E0,-5.968885422E-1
1.296088033E0,1.071366668E-1,-1.681883812E0,-6.326804161E-1
1.301105794E0,6.414529681E-2,-1.736051559E0,-6.478729248E-1
1.306123554E0,7.400882244E-2,-1.753648281E0,-6.802811623E-1
1.311141314E0,1.700491905E-1,-1.778148651E0,-7.342877388E-1
1.316159075E0,3.281337023E-1,-1.790578365E0,-8.431248665E-1
1.321176835E0,4.769191444E-1,-1.838870049E0,-9.873976707E-1
1.326194596E0,6.267186403E-1,-1.832330704E0,-1.171750546E0
1.331212356E0,6.160257459E-1,-1.637665272E0,-1.362659931E0
1.336230117E0,4.934818149E-1,-1.403597355E0,-1.517104149E0
1.341247877E0,3.453026712E-1,-1.230308056E0,-1.597212791E0
1.346265637E0,1.997269988E-1,-1.074412346E0,-1.598682404E0
1.351283398E0,9.873837233E-2,-9.022607803E-1,-1.569637299E0
1.356301158E0,5.078381300E-2,-7.517580986E-1,-1.562895775E0
1.361318919E0,2.147704363E-2,-6.322779655E-1,-1.564092159E0
1.366336679E0,6.770658493E-2,-5.340800285E-1,-1.625722885E0
1.371354439E0,1.366659701E-1,-4.571590424E-1,-1.695007801E0
1.376372200E0,2.043965459E-1,-3.631520271E-1,-1.729070663E0
1.381389960E0,2.567906976E-1,-3.332557678E-1,-1.875907421E0
1.386407721E0,2.994739115E-1,-2.956790924E-1,-1.987234592E0
1.391425481E0,3.376791477E-1,-2.168908119E-1,-2.072877407E0
1.396443242E0,3.905230463E-1,-1.970210075E-1,-2.176044941E0
1.401461002E0,4.295535982E-1,-1.973762512E-1,-2.292185783E0
1.406478762E0,4.644040763E-1,-1.984472275E-1,-2.378624439E0
1.411496523E0,4.332694411E-1,-1.950268745E-1,-2.488356590E0
1.416514283E0,3.843330145E-1,-1.724324226E-1,-2.635985374E0
1.421532044E0,3.179316521E-1,-9.698629379E-2,-2.688121319E0
1.426549804E0,2.721944451E-1,-6.734371185E-3,-2.697881222E0
1.431567564E0,2.660629749E-1,6.521272659E-2,-2.699139595E0
1.436585325E0,2.708495855E-1,1.001710892E-1,-2.677950859E0
1.441603085E0,2.914391160E-1,1.126890182E-1,-2.586801052E0
1.446620846E0,3.042066097E-1,1.505684853E-1,-2.464149475E0
1.451638606E0,3.140661716E-1,2.041339874E-1,-2.329169750E0
1.456656367E0,3.739676476E-1,2.493133545E-1,-2.186559677E0
1.461674127E0,4.172307253E-1,3.194189072E-1,-2.017163277E0
1.466691887E0,4.823499918E-1,3.330540657E-1,-1.844760418E0
1.471709648E0,5.218343735E-1,3.904089928E-1,-1.707335472E0
1.476727408E0,5.885984302E-1,4.005932808E-1,-1.542660236E0
1.481745169E0,6.157758236E-1,4.926156998E-1,-1.369890690E0
1.486762929E0,5.788598657E-1,6.091365814E-1,-1.122358322E0
1.491780689E0,5.150994062E-1,8.123250008E-1,-8.910956383E-1
1.496798450E0,4.999399781E-1,9.302520752E-1,-6.379532814E-1
1.501816210E0,4.940364361E-1,9.729423523E-1,-3.726744652E-1
1.506833971E0,4.777070880E-1,1.055221081E0,-4.281234741E-2
1.511851731E0,4.744773805E-1,1.181587696E0,2.990756035E-1
1.516869492E0,4.411616027E-1,1.322969913E0,6.389222145E-1
1.521887252E0,4.399380684E-1,1.412099838E0,9.914360046E-1
1.526905012E0,4.181546867E-1,1.486771107E0,1.466887474E0
1.531922773E0,3.328106105E-1,1.546474457E0,1.864953995E0
1.536940533E0,1.461914331E-1,1.643348694E0,2.171954155E0
1.541958294E0,-1.314062476E-1,1.719551563E0,2.398146152E0
1.546976054E0,-4.419107437E-1,1.832163334E0,2.524934292E0
1.551993814E0,-7.561807632E-1,2.004822731E0,2.633877277E0
1.557011575E0,-1.036159158E0,2.175097466E0,2.739538193E0
1.562029335E0,-1.268002868E0,2.352613926E0,2.755952358E0
1.567047096E0,-1.371217370E0,2.513706684E0,2.845482349E0
1.572065377E0,-1.395009398E0,2.667964458E0,2.969720840E0
1.577082773E0,-1.340894580E0,2.782140732E0,3.090229511E0
1.582100169E0,-1.239165902E0,2.880295753E0,3.197398663E0
1.587117564E0,-1.133854985E0,3.043768883E0,3.257706642E0
1.592134960E0,-9.778596163E-1,3.234396935E0,3.209033966E0
1.597152408E0,-7.567661405E-1,3.342465878E0,3.042043209E0
1.602169908E0,-5.230715275E-1,3.407003403E0,2.847271442E0
1.607187460E0,-2.626938820E-1,3.423955917E0,2.714972496E0
1.612205064E0,1.442333311E-2,3.384657383E0,2.596558571E0
1.617222721E0,2.456717938E-1,3.270920753E0,2.505665779E0
1.622240429E0,4.686946869E-1,3.145770550E0,2.446364880E0
1.627258189E0,7.170749903E-1,2.847528934E0,2.341727734E0
1.632276002E0,9.774277210E-1,2.453928471E0,2.229393482E0
1.637293867E0,1.208447933E0,2.047084332E0,2.285437584E0
1.642311783E0,1.412182808E0,1.655933857E0,2.504363060E0
1.647329752E0,1.609961629E0,1.203567505E0,2.909990311E0
1.652347773E0,1.813586473E0,7.131237984E-1,3.440495968E0
1.657365794E0,2.025414705E0,2.740192413E-1,4.044159412E0
1.662383814E0,2.204665661E0,-1.251873970E-1,4.683973312E0
1.667401835E0,2.362757206E0,-5.248489380E-1,5.261218071E0
1.672419856E0,2.433779955E0,-9.318418503E-1,5.710958004E0
1.677437773E0,2.379312277E0,-1.266587257E0,5.891710281E0
1.682455533E0,2.079416752E0,-1.353734493E0,5.738368034E0
1.687473294E0,1.629163265E0,-1.328310490E0,5.257272720E0
1.692491002E0,1.156624794E0,-1.314888000E0,4.592792511E0
1.697508710E0,7.225913405E-1,-1.298726559E0,3.821640968E0
1.702526419E0,4.112752676E-1,-1.331537247E0,3.024753571E0
1.707544127E0,1.869994998E-1,-1.387887955E0,2.186834335E0
1.712561835E0,-1.841503382E-2,-1.399443150E0,1.297303200E0
1.717579544E0,-1.532303691E-1,-1.398456097E0,4.554820061E-1
1.722597252E0,-2.232928872E-1,-1.393330574E0,-3.970522881E-1
1.727614960E0,-2.433979511E-1,-1.449715614E0,-1.204082012E0
1.732632669E0,-1.565487981E-1,-1.509029865E0,-1.861768246E0
1.737650377E0,-1.617467403E-2,-1.551261902E0,-2.376156807E0
1.742668085E0,9.657901525E-2,-1.580506325E0,-2.757988930E0
1.747685794E0,2.296459079E-1,-1.629719734E0,-3.079821110E0
1.752703502E0,3.978590369E-1,-1.693834782E0,-3.294428825E0
1.757721210E0,5.732232332E-1,-1.748812675E0,-3.392835855E0
1.762738919E0,7.707146406E-1,-1.799499035E0,-3.346806765E0
1.767756627E0,9.625115395E-1,-1.822235584E0,-3.295171499E0
1.772774335E0,1.145294070E0,-1.846163750E0,-3.232995987E0
1.777792044E0,1.287163019E0,-1.871716022E0,-3.164907932E0
1.782809752E0,1.361183643E0,-1.904132843E0,-3.152818680E0
1.787827460E0,1.388084650E0,-1.943760395E0,-3.158285618E0
1.792845169E0,1.349882126E0,-1.986056805E0,-3.228957891E0
1.797862877E0,1.233153582E0,-2.007219791E0,-3.259672880E0
1.802880585E0,9.571417570E-1,-2.040938854E0,-3.250367403E0
1.807898294E0,6.321285963E-1,-2.082495689E0,-3.286983252E0
1.812916002E0,3.103065491E-1,-2.098458290E0,-3.302386999E0
1.817933710E0,5.378246307E-3,-2.069736004E0,-3.234434128E0
1.822951419E0,-2.835364938E-1,-2.053930759E0,-3.192768097E0
1.827969127E0,-5.090732574E-1,-2.060704231E0,-3.157906055E0
1.832986835E0,-7.197592258E-1,-2.056722641E0,-3.105594158E0
1.838004544E0,-9.498494267E-1,-1.980144978E0,-3.016351700E0
1.843022252E0,-1.186308980E0,-1.850325108E0,-2.866064072E0
1.848040012E0,-1.378051519E0,-1.739165306E0,-2.692715168E0
1.853057773E0,-1.540952563E0,-1.623010635E0,-2.443364620E0
1.858075533E0,-1.643100739E0,-1.502185345E0,-2.127308846E0
1.863093294E0,-1.719306707E0,-1.377231598E0,-1.863521576E0
1.868111054E0,-1.827666402E0,-1.205721378E0,-1.632252693E0
1.873128814E0,-1.935179710E0,-1.016932011E0,-1.471196175E0
1.878146575E0,-2.041822195E0,-8.591446877E-1,-1.327289581E0
1.883164335E0,-2.056644440E0,-7.281918526E-1,-1.199965954E0
1.888182096E0,-1.998629808E0,-6.294088364E-1,-1.064849377E0
1.893199856E0,-1.915385246E0,-5.058217049E-1,-1.026749134E0
1.898217617E0,-1.835171938E0,-3.674278259E-1,-9.896497726E-1
1.903235377E0,-1.691107035E0,-2.812366486E-1,-9.869289398E-1
1.908253137E0,-1.464310408E0,-2.276577950E-1,-1.037943363E0
1.913270898E0,-1.255148888E0,-1.344890594E-1,-1.214648247E0
1.918288658E0,-1.048874140E0,-2.988386154E-2,-1.469532490E0
1.923306419E0,-8.688256741E-1,5.808448792E-2,-1.717011452E0
1.928324179E0,-6.760889292E-1,8.227348328E-2,-1.938550949E0
1.933341939E0,-5.177624822E-1,8.161306381E-2,-2.110881805E0
1.938359700E0,-4.364184439E-1,1.380014420E-1,-2.268166542E0
1.943377460E0,-3.839499056E-1,1.801524162E-1,-2.377478123E0
1.948395221E0,-4.080379307E-1,2.947297096E-1,-2.458655357E0
1.953412981E0,-4.367766976E-1,4.246411324E-1,-2.540813446E0
1.958430742E0,-3.454844058E-1,4.077601433E-1,-2.533520222E0
1.963448502E0,-3.106663227E-1,3.400053978E-1,-2.437062263E0
1.968466262E0,-2.316334993E-1,3.119635582E-1,-2.136789799E0
1.973484023E0,-2.762731910E-2,2.707095146E-1,-1.804878712E0
1.978501783E0,3.772944212E-2,3.354854584E-1,-1.412533760E0
1.983519544E0,5.019435287E-2,4.435143471E-1,-1.026350975E0
1.988537304E0,7.188704610E-2,5.225143433E-1,-7.126784325E-1
1.993555064E0,5.960947275E-2,6.724805832E-1,-3.754372597E-1
1.998572825E0,1.788476110E-2,8.069601059E-1,-5.259370804E-2
2.003590585E0,-4.874050617E-2,8.922939301E-1,2.274961472E-1
2.008608346E0,-4.005804658E-2,9.283356667E-1,5.273008347E-1
2.013626106E0,-6.620860100E-2,1.024901390E0,7.991728783E-1
2.018643867E0,-1.319888085E-1,1.167481422E0,9.859066010E-1
2.023661627E0,-1.655296087E-1,1.279702663E0,1.087566853E0
2.028679387E0,-1.425354332E-1,1.285370827E0,1.180630684E0
2.033697148E0,-9.124216437E-2,1.247184277E0,1.202684402E0
2.038714908E0,-5.876848102E-2,1.218207836E0,1.143927097E0
2.043732669E0,8.454024792E-3,1.184462070E0,1.051923275E0
2.048750429E0,7.332742214E-2,1.141396046E0,9.790325165E-1
2.053768189E0,1.606733501E-1,1.060546875E0,8.915600777E-1
2.058785950E0,2.565493286E-1,9.280791283E-1,7.986879349E-1
2.063803710E0,2.129628062E-1,8.734960556E-1,6.857075691E-1
2.068821471E0,-3.552168608E-3,1.054672718E0,5.427250862E-1
2.073839231E0,-2.070230842E-1,1.227786541E0,4.889245033E-1
2.078856992E0,-3.218765855E-1,1.316625595E0,4.761791229E-1
2.083874752E0,-4.347982407E-1,1.455183983E0,5.091624260E-1
2.088892512E0,-5.751290321E-1,1.676706791E0,5.783162117E-1
2.093910273E0,-7.387354374E-1,1.937934399E0,6.215519905E-1
2.098928033E0,-8.929059505E-1,2.205120087E0,8.397974968E-1
2.103945794E0,-9.816505909E-1,2.439555168E0,1.089818478E0
2.108963554E0,-1.077680945E0,2.731632710E0,1.276441097E0
2.113981314E0,-1.076300621E0,2.985373497E0,1.414423466E0
2.118999075E0,-1.068620682E0,3.210155964E0,1.580553532E0
2.124016835E0,-1.011664748E0,3.386635780E0,1.751157761E0
2.129034596E0,-8.481187224E-1,3.466926575E0,1.849999428E0
2.134052356E0,-6.302625537E-1,3.456027031E0,1.853351593E0
2.139070117E0,-3.769301474E-1,3.373561859E0,1.794578075E0
2.144087877E0,-1.163093522E-1,3.234567165E0,1.620753765E0
2.149105637E0,1.709480733E-1,3.001915932E0,1.431546211E0
2.154123398E0,4.611492455E-1,2.715316296E0,1.273550034E0
2.159141158E0,6.733379364E-1,2.428609371E0,1.107380390E0
2.164158919E0,8.559611440E-1,1.975582600E0,1.166245937E0
2.169176679E0,9.001349807E-1,1.323370934E0,1.607168198E0
2.174194439E0,9.402711987E-1,6.247348785E-1,2.315251827E0
2.179212200E0,5.700668693E-1,2.994613647E-1,2.937152863E0
2.184229960E0,1.012483612E-2,2.022099495E-1,3.464687824E0
2.189247721E0,-3.848570585E-1,-8.116722107E-3,3.918514729E0
2.194265481E0,-6.956715584E-1,-3.087401390E-1,4.285733700E0
2.199283242E0,-1.065171838E0,-5.577712059E-1,4.520224094E0
2.204301002E0,-1.468855500E0,-7.283000946E-1,4.647566319E0
2.209318762E0,-1.858906269E0,-8.554973602E-1,4.693161011E0
2.214336523E0,-2.231450319E0,-9.693355560E-1,4.691576481E0
2.219354283E0,-2.554409981E0,-1.042196751E0,4.519467354E0
2.224372044E0,-2.814922571E0,-1.108062744E0,4.249159336E0
2.229389804E0,-2.952335596E0,-1.095224857E0,3.880737782E0
2.234407564E0,-2.943977356E0,-1.084663391E0,3.342352390E0
2.239425325E0,-2.828947306E0,-1.056370735E0,2.729162693E0
2.244443085E0,-2.655493259E0,-1.076028347E0,2.078506470E0
2.249460846E0,-2.457357168E0,-1.099314690E0,1.379899502E0
2.254478606E0,-2.281817436E0,-1.129777908E0,6.706633568E-1
2.259496367E0,-2.137962580E0,-1.161530018E0,5.024337769E-2
2.264514127E0,-2.030504704E0,-1.188668728E0,-5.064053535E-1
2.269531887E0,-1.902205706E0,-1.219934940E0,-9.189238548E-1
2.274549648E0,-1.734313011E0,-1.245064259E0,-1.159590721E0
2.279567408E0,-1.507879615E0,-1.287672997E0,-1.372383118E0
2.284585169E0,-1.251352191E0,-1.362012863E0,-1.576515198E0
2.289602929E0,-9.642855525E-1,-1.486963749E0,-1.733924389E0
2.294620689E0,-6.799125671E-1,-1.609823704E0,-1.830413818E0
2.299638450E0,-4.408457875E-1,-1.716149807E0,-1.947444439E0
2.304656210E0,-2.322953343E-1,-1.834263325E0,-2.123544693E0
2.309673971E0,-5.841302499E-2,-1.959022522E0,-2.277677536E0
2.314691731E0,5.777461082E-2,-2.051975250E0,-2.347986698E0
2.319709492E0,1.313995719E-1,-2.151398659E0,-2.353799820E0
2.324727252E0,1.630868018E-1,-2.219153881E0,-2.319077969E0
2.329745012E0,2.014617324E-1,-2.293670177E0,-2.282036304E0
2.334762773E0,2.660298347E-1,-2.375102520E0,-2.108760834E0
2.339780533E0,2.661966681E-1,-2.373132229E0,-1.995027542E0
2.344798294E0,2.451281846E-1,-2.364821434E0,-1.816092491E0
2.349816054E0,2.169834524E-1,-2.360407829E0,-1.624048710E0
2.354833814E0,1.147543490E-1,-2.274462700E0,-1.504404545E0
2.359851575E0,-9.153783321E-3,-2.169777870E0,-1.408768177E0
2.364869335E0,-1.598546058E-1,-2.046972752E0,-1.365234375E0
2.369887096E0,-2.993347347E-1,-1.944734573E0,-1.363757133E0
2.374904856E0,-4.662042856E-1,-1.834696770E0,-1.389599323E0
2.379922617E0,-6.512814760E-1,-1.702728271E0,-1.499871254E0
2.384940377E0,-7.977374792E-1,-1.572910309E0,-1.627359867E0
2.389958137E0,-8.964011669E-1,-1.521761417E0,-1.714619160E0
2.394975898E0,-9.858961105E-1,-1.444071293E0,-1.814216137E0
2.399993658E0,-1.033013225E0,-1.363822460E0,-1.969087601E0
2.405011419E0,-1.037936807E0,-1.295228481E0,-2.140994072E0
2.410029179E0,-1.005540013E0,-1.252478600E0,-2.286992550E0
2.415046939E0,-9.457025528E-1,-1.197013855E0,-2.393028736E0
2.420064700E0,-8.874956369E-1,-1.104645729E0,-2.512013435E0
2.425082460E0,-8.070884943E-1,-1.037287712E0,-2.601150990E0
2.430100221E0,-6.854494810E-1,-1.009025097E0,-2.660665035E0
2.435117981E0,-5.560271740E-1,-9.669408798E-1,-2.681295872E0
2.440135742E0,-4.090376496E-1,-9.300665855E-1,-2.749234200E0
2.445153502E0,-2.440469861E-1,-8.742413521E-1,-2.783391953E0
2.450171262E0,-6.566178799E-2,-8.040685654E-1,-2.745810032E0
2.455188971E0,1.023754776E-1,-7.050323486E-1,-2.665505409E0
2.460206679E0,2.410062850E-1,-6.009893417E-1,-2.552210331E0
2.465224387E0,3.600386977E-1,-5.111651421E-1,-2.444137096E0
2.470242096E0,4.598712325E-1,-4.164686203E-1,-2.389031887E0
2.475259804E0,5.221281052E-1,-3.216643333E-1,-2.362962246E0
2.480277512E0,5.379408598E-1,-2.698230743E-1,-2.289399624E0
2.485295221E0,4.982389510E-1,-2.130060196E-1,-2.268893719E0
2.490312929E0,3.938956857E-1,-1.511101723E-1,-2.268032074E0
2.495330637E0,2.491071820E-1,-6.004667282E-2,-2.325230598E0
2.500348346E0,1.308021545E-1,-1.668930054E-3,-2.373799801E0
2.505366054E0,2.426683903E-2,6.754016876E-2,-2.409395218E0
2.510383762E0,-5.177703500E-2,9.534358978E-2,-2.375027180E0
2.515401471E0,-1.267273426E-1,1.778039932E-1,-2.361985207E0
2.520419179E0,-1.389392018E-1,2.482647896E-1,-2.317979336E0
2.525436887E0,-5.075177550E-2,2.592263222E-1,-2.205068111E0
2.530454596E0,8.502882719E-2,2.537956238E-1,-1.999469280E0
2.535472304E0,2.298118472E-1,2.892155647E-1,-1.715542316E0
2.540490012E0,3.932051659E-1,3.651895523E-1,-1.429685116E0
2.545507721E0,5.417876244E-1,4.575738907E-1,-1.074820995E0
2.550525429E0,6.657989621E-1,5.469899178E-1,-6.842737198E-1
2.555543137E0,7.606855035E-1,6.332101822E-1,-2.961115837E-1
2.560560846E0,8.458775878E-1,7.398042679E-1,9.477186203E-2
2.565578554E0,9.504740238E-1,8.377194405E-1,5.173540115E-1
2.570596262E0,1.084513426E0,8.931021690E-1,8.811435699E-1
2.575613971E0,1.234226465E0,9.964013100E-1,1.310882092E0
2.580631679E0,1.328183889E0,1.137493134E0,1.744734287E0
2.585649387E0,1.333226204E0,1.296728134E0,2.092303753E0
2.590667096E0,1.307035565E0,1.473736286E0,2.330153465E0
2.595684804E0,1.259398222E0,1.596615314E0,2.549445629E0
2.600702512E0,1.156983376E0,1.732262135E0,2.802880287E0
2.605720221E0,9.614079595E-1,1.899391174E0,3.105091095E0
2.610737981E0,7.299601436E-1,2.116649628E0,3.293873787E0
2.615755742E0,4.960009456E-1,2.287909031E0,3.412874699E0
2.620773502E0,2.926257849E-1,2.465449333E0,3.548618793E0
2.625791262E0,1.240419149E-1,2.605946541E0,3.634468555E0
2.630809023E0,8.694618940E-3,2.714296818E0,3.646624088E0
2.635826783E0,-9.253987670E-2,2.795553684E0,3.575529575E0
2.640844544E0,-2.045679837E-1,2.897813797E0,3.440294743E0
2.645862304E0,-2.994874120E-1,3.006875992E0,3.250492096E0
2.650880064E0,-3.303477764E-1,3.104087353E0,2.986722469E0
2.655897825E0,-3.028275967E-1,3.175961494E0,2.567167282E0
2.660915585E0,-2.271016538E-1,3.209384441E0,2.072319984E0
2.665933346E0,-7.963973284E-2,3.224755287E0,1.649377346E0
2.670951106E0,1.436140239E-1,3.132621288E0,1.316126823E0
2.675968867E0,4.513332546E-1,2.977401733E0,1.090438843E0
2.680986627E0,8.428242803E-1,2.764868259E0,1.033476830E0
2.686004387E0,1.375172377E0,2.472265244E0,1.005410671E0
2.691022148E0,2.001576900E0,2.148403168E0,1.019721508E0
2.696039908E0,2.638014555E0,1.750844955E0,1.118821621E0
2.701057669E0,3.158093929E0,1.337324619E0,1.369163513E0
2.706075429E0,3.435667992E0,8.884682655E-1,1.813652992E0
2.711093189E0,3.502366066E0,4.223566055E-1,2.510187149E0
2.716110950E0,3.393438339E0,9.039878845E-3,3.392850876E0
2.721128710E0,3.128779411E0,-2.913980484E-1,4.314882278E0
2.726146471E0,2.823077202E0,-5.290026665E-1,5.034283638E0
2.731164231E0,2.485438824E0,-7.919683456E-1,5.534094334E0
2.736181992E0,2.124692917E0,-1.029676914E0,5.806865215E0
2.741199752E0,1.792527914E0,-1.210466385E0,5.811434746E0
2.746217512E0,1.463799357E0,-1.330935001E0,5.635362148E0
2.751235273E0,1.184995055E0,-1.387317181E0,5.246252060E0
2.756253033E0,9.310140014E-1,-1.427857876E0,4.716448307E0
2.761270794E0,7.297150493E-1,-1.433548927E0,4.074942112E0
2.766288554E0,5.901320577E-1,-1.389977455E0,3.360066414E0
2.771306314E0,5.646682382E-1,-1.377933025E0,2.590633392E0
2.776324075E0,5.859974027E-1,-1.377418041E0,1.794809341E0
2.781341835E0,6.205801964E-1,-1.382459641E0,9.717469215E-1
2.786359596E0,6.968497038E-1,-1.391424179E0,1.871628761E-1
2.791377356E0,7.854565382E-1,-1.421855450E0,-4.932923317E-1
2.796395117E0,8.237937689E-1,-1.462533474E0,-1.104550838E0
2.801412877E0,8.451294303E-1,-1.512109756E0,-1.623934746E0
2.806430637E0,9.020261765E-1,-1.535970211E0,-2.043033123E0
2.811448398E0,9.756382704E-1,-1.590757370E0,-2.410544872E0
2.816466158E0,1.104939342E0,-1.670977116E0,-2.765489578E0
2.821483919E0,1.233604193E0,-1.733149529E0,-3.070171833E0
2.826501679E0,1.290859699E0,-1.824852943E0,-3.219889641E0
2.831519439E0,1.291901946E0,-1.874075413E0,-3.459051609E0
2.836537200E0,1.237650394E0,-1.904429436E0,-3.572854042E0
2.841554960E0,1.090425730E0,-1.920474052E0,-3.652651787E0
2.846572721E0,9.034287930E-1,-1.941249371E0,-3.708228350E0
2.851590481E0,6.723421812E-1,-1.971552372E0,-3.696624517E0
2.856608242E0,4.452338815E-1,-2.035642147E0,-3.622404099E0
2.861626002E0,2.364414930E-1,-2.114856243E0,-3.504297733E0
2.866643762E0,2.202981710E-2,-2.171410084E0,-3.399259090E0
2.871661523E0,-2.029502094E-1,-2.210509777E0,-3.306845188E0
2.876679283E0,-4.243976474E-1,-2.237395763E0,-3.188324928E0
2.881697044E0,-6.520968080E-1,-2.266983986E0,-3.052729130E0
2.886714804E0,-8.818602562E-1,-2.280584812E0,-2.928277016E0
2.891732564E0,-1.090299964E0,-2.245084286E0,-2.819358349E0
2.896750325E0,-1.273284197E0,-2.199226379E0,-2.715942383E0
2.901768085E0,-1.441212416E0,-2.133966446E0,-2.588832855E0
2.906785846E0,-1.594797850E0,-2.073635101E0,-2.461585999E0
2.911803606E0,-1.753989339E0,-1.966083050E0,-2.352917194E0
2.916821367E0,-1.871530533E0,-1.830880642E0,-2.257704258E0
2.921839127E0,-1.957568407E0,-1.668462753E0,-2.142155647E0
2.926856887E0,-2.022186995E0,-1.488865852E0,-2.005980492E0
2.931874648E0,-2.003678083E0,-1.254477978E0,-1.843986988E0
2.936892408E0,-1.935763836E0,-1.032958031E0,-1.737017632E0
2.941910169E0,-1.823058248E0,-8.057246208E-1,-1.665474415E0
2.946927929E0,-1.679479361E0,-5.731811523E-1,-1.643391609E0
2.951945689E0,-1.499725819E0,-3.643679619E-1,-1.670464516E0
2.956963450E0,-1.355121493E0,-1.935992241E-1,-1.737076759E0
2.961981210E0,-1.240609169E0,-4.152917862E-2,-1.848088264E0
2.966998971E0,-1.103282809E0,3.492212296E-2,-2.018099308E0
2.972016731E0,-9.717327356E-1,5.578374863E-2,-2.233290672E0
2.977034492E0,-8.936312199E-1,9.837579727E-2,-2.479828835E0
2.982052252E0,-8.497042656E-1,1.587872505E-1,-2.705799580E0
2.987070012E0,-8.065072894E-1,2.330675125E-1,-2.902361870E0
2.992087773E0,-7.499853969E-1,2.646055222E-1,-3.051067829E0
2.997105533E0,-6.372900009E-1,2.877039909E-1,-3.162185192E0
3.002123294E0,-5.018718243E-1,3.125343323E-1,-3.217158318E0
3.007141054E0,-3.390250802E-1,3.682160378E-1,-3.168648243E0
3.012158814E0,-1.487464011E-1,4.023036957E-1,-2.973973751E0
3.017176575E0,3.081290424E-2,4.340682030E-1,-2.676505566E0
3.022194335E0,1.952508837E-1,4.490046501E-1,-2.386238098E0
3.027212096E0,3.214736283E-1,4.610710144E-1,-2.035914421E0
3.032229856E0,3.909829259E-1,5.175905228E-1,-1.577438831E0
3.037247617E0,4.279518127E-1,5.796012878E-1,-1.024801254E0
3.042265377E0,4.083033204E-1,6.560096741E-1,-4.158596992E-1
3.047283137E0,3.080883026E-1,8.034338951E-1,1.638460159E-1
3.052300898E0,1.557420641E-1,1.035500050E0,6.575007439E-1
3.057318658E0,5.158936977E-2,1.203554630E0,1.027268887E0
3.062336419E0,4.912003875E-3,1.264602661E0,1.192150593E0
3.067354179E0,-3.694932163E-2,1.233366489E0,1.157094002E0
3.072371939E0,-5.854743719E-2,1.177326679E0,9.077281952E-1
3.077389700E0,-5.387037992E-2,1.096847534E0,6.640110016E-1
3.082407460E0,-2.202166617E-2,1.059423923E0,5.784635544E-1
3.087425221E0,3.692422807E-2,1.041438580E0,7.222537994E-1
3.092442981E0,1.123006046E-1,1.072066307E0,1.032466888E0
3.097460742E0,2.074159682E-1,1.137407780E0,1.255072117E0
3.102478502E0,2.259646058E-1,1.175698280E0,1.432892799E0
3.107496262E0,1.871969104E-1,1.211045742E0,1.565873623E0
3.112514023E0,1.106158867E-1,1.224291325E0,1.721052647E0
3.117531783E0,2.056924999E-2,1.262996674E0,1.912969589E0
3.122549544E0,-1.305013299E-1,1.312292576E0,2.161096573E0
3.127567304E0,-3.142297268E-1,1.409721851E0,2.442015171E0
3.132585064E0,-5.693921447E-1,1.568777561E0,2.722847462E0
3.137602825E0,-8.392999768E-1,1.745310783E0,2.932710648E0
3.142620585E0,-1.057823181E0,1.881226063E0,3.081838131E0
3.147638346E0,-1.177914500E0,2.019155979E0,3.118091583E0
3.152656106E0,-1.219203472E0,2.163873196E0,3.065544128E0
3.157673867E0,-1.234762311E0,2.325254917E0,3.005334854E0
3.162691575E0,-1.176522970E0,2.484395504E0,2.894245625E0
3.167709283E0,-1.072832584E0,2.689276695E0,3.076440334E0
3.172726992E0,-9.733616710E-1,2.901668549E0,3.130669594E0
3.177744700E0,-8.505422473E-1,3.031270027E0,2.784192085E0
3.182762408E0,-6.510409713E-1,3.069322109E0,2.300060272E0
3.187780117E0,-3.738467693E-1,3.035967827E0,1.931183338E0
3.192797825E0,-5.675294250E-2,2.927531242E0,1.724387646E0
3.197815533E0,2.669951916E-1,2.754721165E0,1.587742805E0
3.202833242E0,5.786524415E-1,2.494679451E0,1.429532528E0
3.207850950E0,8.790745139E-1,2.119880676E0,1.349348545E0
3.212868658E0,1.126079440E0,1.640799999E0,1.427741528E0
3.217886367E0,1.287109017E0,1.163150787E0,1.678516865E0
3.222904075E0,1.320062280E0,7.440996170E-1,2.044220924E0
3.227921783E0,1.230803967E0,3.731822968E-1,2.534928799E0
3.232939492E0,1.058680773E0,8.718395233E-2,3.022501945E0
3.237957200E0,8.142089844E-1,-1.777830124E-1,3.460427761E0
3.242974908E0,5.029449463E-1,-4.280185699E-1,3.806919575E0
3.247992617E0,1.685397327E-1,-6.172814369E-1,4.010714531E0
3.253010325E0,-1.794627011E-1,-7.951545715E-1,4.092438221E0
3.258028033E0,-5.320425630E-1,-9.152059555E-1,4.058086395E0
3.263045742E0,-8.519006968E-1,-1.011855602E0,3.932391644E0
3.268063450E0,-1.011107564E0,-1.152774811E0,3.682559967E0
3.273081158E0,-1.211726904E0,-1.175613880E0,3.352025032E0
3.278098867E0,-1.339725614E0,-1.166712284E0,2.945780754E0
3.283116575E0,-1.329261422E0,-1.197582245E0,2.549850464E0
3.288134283E0,-1.243602037E0,-1.176595688E0,2.058523178E0
3.293151992E0,-1.155253649E0,-1.093405724E0,1.471332073E0
3.298169700E0,-1.092904329E0,-1.009135246E0,8.210597038E-1
3.303187408E0,-1.046774745E0,-9.273619652E-1,1.738338470E-1
3.308205117E0,-1.001946568E0,-8.902106285E-1,-4.327888489E-1
3.313222825E0,-9.723517895E-1,-8.967614174E-1,-9.995350838E-1
3.318240533E0,-9.527904987E-1,-9.030380249E-1,-1.484140396E0
3.323258294E0,-9.384004474E-1,-8.890881538E-1,-1.949566364E0
3.328276054E0,-8.911845088E-1,-8.921694756E-1,-2.334547997E0
3.333293814E0,-8.261514902E-1,-9.447135925E-1,-2.663984299E0
3.338311575E0,-7.007956505E-1,-1.002698898E0,-2.972240925E0
3.343329335E0,-5.486095548E-1,-1.117965698E0,-3.269598484E0
3.348347096E0,-3.403972089E-1,-1.194224358E0,-3.504028320E0
3.353364856E0,-1.372507513E-1,-1.279049873E0,-3.647243023E0
3.358382617E0,3.800773621E-2,-1.386754036E0,-3.603807449E0
3.363400377E0,2.050633430E-1,-1.488747120E0,-3.426492214E0
3.368418137E0,3.356258571E-1,-1.590388298E0,-3.134129524E0
3.373435898E0,4.488747716E-1,-1.692275524E0,-2.750258446E0
3.378453658E0,5.683318973E-1,-1.823769569E0,-2.346119881E0
3.383471419E0,6.649202108E-1,-1.904216766E0,-1.945038319E0
3.388489179E0,7.191516161E-1,-1.972779274E0,-1.574955463E0
3.393506939E0,7.164215446E-1,-1.992065430E0,-1.230314732E0
3.398524700E0,6.373697519E-1,-2.015590191E0,-9.677352905E-1
3.403542460E0,5.107710958E-1,-2.020176411E0,-7.625880241E-1
3.408560221E0,3.510544300E-1,-1.992331505E0,-5.950040817E-1
3.413577981E0,1.821732223E-1,-1.942418575E0,-5.025982857E-1
3.418595742E0,-2.467310242E-2,-1.875801086E0,-4.705071449E-1
3.423613502E0,-2.551283538E-1,-1.783414364E0,-4.983010292E-1
3.428631262E0,-4.899813831E-1,-1.684561729E0,-5.953788757E-1
3.433649023E0,-7.488607168E-1,-1.560394764E0,-6.849579811E-1
3.438666783E0,-1.008030772E0,-1.387184143E0,-7.717485428E-1
3.443684544E0,-1.229732513E0,-1.231911659E0,-8.892674446E-1
3.448702304E0,-1.410050869E0,-1.104127407E0,-9.944467545E-1
3.453720064E0,-1.525802135E0,-1.018014431E0,-1.135222435E0
3.458737825E0,-1.539216161E0,-9.397916794E-1,-1.283052444E0
3.463755585E0,-1.474771857E0,-8.405003548E-1,-1.442902088E0
3.468773346E0,-1.299206018E0,-7.056450844E-1,-1.653131485E0
3.473791106E0,-1.055436254E0,-5.971655846E-1,-1.832570076E0
3.478808867E0,-7.862426639E-1,-4.812374115E-1,-1.986260414E0
3.483826627E0,-5.344005227E-1,-3.718171120E-1,-2.104957104E0
3.488844387E0,-2.566270828E-1,-3.165650368E-1,-2.231828213E0
3.493862148E0,-5.456209183E-4,-2.481117249E-1,-2.338417530E0
3.498879908E0,2.102511525E-1,-2.284979820E-1,-2.405709267E0
3.503897669E0,3.807749748E-1,-2.477102280E-1,-2.462725163E0
3.508915429E0,4.637340903E-1,-2.145552635E-1,-2.557513237E0
3.513933189E0,4.838981926E-1,-1.574745178E-1,-2.685497761E0
3.518950950E0,4.899446070E-1,-1.575088501E-1,-2.813401222E0
3.523968710E0,4.779728651E-1,-1.330223083E-1,-2.908005238E0
3.528986471E0,4.389653802E-1,-1.268587112E-1,-2.998269081E0
3.534004231E0,3.971153498E-1,-1.050515175E-1,-3.041590214E0
3.539021992E0,3.525845110E-1,-6.262159348E-2,-3.052603722E0
3.544039752E0,3.245047331E-1,5.485534668E-3,-3.022079468E0
3.549057512E0,3.128819764E-1,8.526754379E-2,-2.969558716E0
3.554075273E0,3.176203370E-1,2.102403641E-1,-2.861680508E0
3.559093033E0,3.434113264E-1,3.227887154E-1,-2.703183651E0
3.564110794E0,4.331522584E-1,3.941092491E-1,-2.489261627E0
3.569128554E0,5.629932880E-1,4.620594978E-1,-2.253099918E0
3.574146314E0,6.469223499E-1,5.167927742E-1,-1.989717484E0
3.579164075E0,6.657745838E-1,5.721931458E-1,-1.708308220E0
3.584181835E0,6.576605439E-1,6.566300392E-1,-1.394271851E0
3.589199596E0,6.077769995E-1,7.365174294E-1,-1.109728813E0
3.594217356E0,5.923535228E-1,7.973651886E-1,-8.688359261E-1
3.599235117E0,6.254309416E-1,8.200802803E-1,-6.571807861E-1
3.604252877E0,6.349424124E-1,8.477144241E-1,-4.555482864E-1
3.609270637E0,6.684191823E-1,8.757176399E-1,-2.162947655E-1
3.614288398E0,7.300912738E-1,8.994278908E-1,6.045055389E-2
3.619306158E0,8.197766542E-1,8.950128555E-1,3.506760597E-1
3.624323919E0,8.707528710E-1,8.960185051E-1,5.873765945E-1
3.629341679E0,8.356128335E-1,9.455137253E-1,7.992672920E-1
3.634359439E0,7.627422214E-1,1.000360012E0,1.048554897E0
3.639377200E0,6.668332815E-1,1.050795555E0,1.364027977E0
3.644394960E0,4.909462929E-1,1.192267895E0,1.611853123E0
3.649412721E0,2.643691301E-1,1.371912956E0,1.811349392E0
3.654430481E0,1.162207127E-2,1.579815865E0,2.034537315E0
3.659448242E0,-2.477191985E-1,1.782205582E0,2.252902985E0
3.664466002E0,-4.944710135E-1,1.997790813E0,2.476385593E0
3.669483762E0,-6.859797835E-1,2.211977959E0,2.676512718E0
3.674501523E0,-8.089113832E-1,2.400700569E0,2.858285904E0
3.679519283E0,-8.742824197E-1,2.549645901E0,3.036141872E0
3.684537044E0,-8.789470196E-1,2.706886292E0,3.109560966E0
3.689554804E0,-8.241293430E-1,2.868062019E0,3.068789005E0
3.694572564E0,-7.248750329E-1,3.028903008E0,2.889645576E0
3.699590325E0,-5.671955943E-1,3.166097641E0,2.691354752E0
3.704608085E0,-3.419149518E-1,3.237440586E0,2.492395401E0
3.709625846E0,-5.908368528E-2,3.219830990E0,2.330423355E0
3.714643606E0,3.001001775E-1,3.095020294E0,2.171285152E0
3.719661367E0,6.925329566E-1,2.883044720E0,2.071731567E0
3.724679127E0,1.123039246E0,2.675361156E0,2.141297340E0
3.729696887E0,1.606125593E0,2.338595867E0,2.307632446E0
3.734714648E0,2.060857773E0,1.863736153E0,2.536881447E0
3.739732408E0,2.359274864E0,1.361084938E0,2.867158413E0
3.744750169E0,2.540917158E0,8.831033707E-1,3.351134300E0
3.749767929E0,2.626243353E0,4.147081375E-1,3.970101833E0
3.754785689E0,2.650396824E0,-4.078626633E-2,4.653332710E0
3.759803450E0,2.610422134E0,-4.661540985E-1,5.292201996E0
3.764821210E0,2.517395258E0,-8.491616249E-1,5.850048542E0
3.769838971E0,2.367697954E0,-1.158518314E0,6.271115780E0
3.774856731E0,2.185733795E0,-1.439216614E0,6.513852119E0
3.779874492E0,1.961399078E0,-1.587655544E0,6.637003422E0
3.784892252E0,1.736395836E0,-1.696148872E0,6.503024578E0
3.789910012E0,1.552488446E0,-1.755839825E0,6.093635559E0
3.794927773E0,1.422915816E0,-1.786141872E0,5.500264645E0
3.799945533E0,1.370689988E0,-1.791628361E0,4.794758320E0
3.804963294E0,1.351959586E0,-1.776323318E0,3.986321926E0
3.809981054E0,1.304078221E0,-1.734640598E0,3.093690872E0
3.814998814E0,1.226652384E0,-1.694067478E0,2.211790562E0
3.820016575E0,1.148078203E0,-1.677114010E0,1.330079556E0
3.825034283E0,1.044303417E0,-1.658453465E0,4.427871704E-1
3.830051992E0,9.536100626E-1,-1.636840343E0,-3.505754471E-1
3.835069700E0,8.805481791E-1,-1.639657974E0,-1.041562557E0
3.840087408E0,8.344655633E-1,-1.656318188E0,-1.650213718E0
3.845105117E0,8.438820243E-1,-1.685867310E0,-2.167839050E0
3.850122825E0,8.701917529E-1,-1.717818260E0,-2.624014854E0
3.855140533E0,9.324786067E-1,-1.737094879E0,-3.048171997E0
3.860158242E0,1.002249956E0,-1.771708488E0,-3.460161209E0
3.865175950E0,1.060863495E0,-1.792453289E0,-3.803149939E0
3.870193658E0,1.137674570E0,-1.822899818E0,-4.082457066E0
3.875211367E0,1.180741906E0,-1.819635868E0,-4.356005669E0
3.880229075E0,1.214863777E0,-1.839807987E0,-4.557255268E0
3.885246783E0,1.336440206E0,-1.945235252E0,-4.658026695E0
3.890264492E0,1.354660034E0,-2.035239697E0,-4.706505775E0
3.895282200E0,1.299241781E0,-2.057172298E0,-4.769889832E0
3.900299908E0,1.190594554E0,-2.016040802E0,-4.752531052E0
3.905317617E0,1.053583622E0,-1.993560791E0,-4.663873672E0
3.910335325E0,8.792706132E-1,-2.052499771E0,-4.455660820E0
3.915353033E0,6.870175600E-1,-2.140729904E0,-4.151395798E0
3.920370742E0,4.574255943E-1,-2.210970402E0,-3.803182364E0
3.925388450E0,1.467549205E-1,-2.216101170E0,-3.400748253E0
3.930406158E0,-1.502473354E-1,-2.195092201E0,-2.972119808E0
3.935423867E0,-4.919739962E-1,-2.129560947E0,-2.559587479E0
3.940441575E0,-8.028283715E-1,-2.077924252E0,-2.176513672E0
3.945459283E0,-1.074095249E0,-2.036174297E0,-1.836450577E0
3.950476992E0,-1.330458879E0,-1.947685719E0,-1.543430328E0
3.955494700E0,-1.567987442E0,-1.856349468E0,-1.263234138E0
3.960512408E0,-1.801499128E0,-1.724529743E0,-1.057534218E0
3.965530117E0,-2.031573296E0,-1.543330193E0,-9.401135445E-1
3.970547825E0,-2.215701342E0,-1.346835136E0,-8.243832588E-1
3.975565533E0,-2.344853163E0,-1.149977207E0,-8.055896759E-1
3.980583242E0,-2.347552299E0,-9.291324615E-1,-8.356261253E-1
3.985600950E0,-2.262435675E0,-7.370600700E-1,-9.143848419E-1
3.990618710E0,-2.099364042E0,-5.401253700E-1,-1.056285858E0
3.995636471E0,-1.896685719E0,-3.332118988E-1,-1.295024872E0
4.000654231E0,-1.692389250E0,-1.778254509E-1,-1.554521561E0
4.005671992E0,-1.495955467E0,-3.503465652E-2,-1.820885658E0
4.010689752E0,-1.321489334E0,1.150369644E-1,-2.104251385E0
4.015707512E0,-1.183111548E0,2.397632599E-1,-2.405275822E0
4.020725273E0,-1.046951175E0,3.685708046E-1,-2.691020012E0
4.025743033E0,-8.933378458E-1,4.734511375E-1,-2.942938805E0
4.030760794E0,-7.312176228E-1,5.455145836E-1,-3.166401386E0
4.035778554E0,-4.929839373E-1,5.901803970E-1,-3.323696136E0
4.040796314E0,-2.453191429E-1,6.080012321E-1,-3.367523670E0
4.045814075E0,2.614825964E-3,6.136593819E-1,-3.307864189E0
4.050831835E0,2.560802698E-1,6.120867729E-1,-3.188031673E0
4.055849596E0,4.727219045E-1,5.985651016E-1,-2.969932079E0
4.060867356E0,6.049864292E-1,5.920276642E-1,-2.653535366E0
4.065885117E0,6.536064148E-1,5.872683525E-1,-2.315185547E0
4.070902877E0,6.000541449E-1,5.933227539E-1,-1.925819874E0
4.075920637E0,4.732984602E-1,6.048464775E-1,-1.508975983E0
4.080938398E0,3.159736097E-1,6.212868690E-1,-1.011606216E0
4.085956158E0,1.227149367E-1,6.947774887E-1,-5.242605209E-1
4.090973919E0,-5.921912193E-2,8.007016182E-1,-8.464288712E-2
4.095991679E0,-2.206576616E-1,9.336767197E-1,3.412494659E-1
4.101009439E0,-3.477002084E-1,1.102546215E0,6.822671890E-1
4.106027200E0,-4.551332593E-1,1.259168625E0,9.004883766E-1
4.111044960E0,-5.190098286E-1,1.412954807E0,1.034459591E0
4.116062721E0,-5.919256806E-1,1.592646122E0,1.089039803E0
4.121080481E0,-6.458859444E-1,1.764948368E0,1.178974152E0
4.126098242E0,-7.057061195E-1,1.858548164E0,1.203500271E0
4.131116002E0,-7.388164997E-1,1.893532753E0,1.157269955E0
4.136133762E0,-7.265559435E-1,1.899641514E0,1.049169540E0
4.141151523E0,-6.883938313E-1,1.849315643E0,9.549126625E-1
4.146169283E0,-6.719145775E-1,1.777067184E0,9.071578979E-1
4.151187044E0,-6.665117145E-1,1.731466293E0,9.052209854E-1
4.156204804E0,-6.949771643E-1,1.736702442E0,1.044397354E0
4.161222564E0,-7.373690009E-1,1.768831253E0,1.314891815E0
4.166240325E0,-7.736065984E-1,1.727140903E0,1.592371941E0
4.171258085E0,-8.457871675E-1,1.625740528E0,1.948813438E0
4.176275846E0,-9.581789970E-1,1.607479095E0,2.422943592E0
4.181293606E0,-1.148966551E0,1.628106117E0,2.848136425E0
4.186311367E0,-1.384593248E0,1.724477291E0,3.263813972E0
4.191329127E0,-1.641540766E0,1.904788971E0,3.541904926E0
4.196346887E0,-1.829122543E0,2.062731266E0,3.692947388E0
4.201364648E0,-1.952435732E0,2.250149250E0,3.741659164E0
4.206382408E0,-2.055572748E0,2.500269413E0,3.779231071E0
4.211400169E0,-2.130457640E0,2.746181011E0,3.714744568E0
4.216417929E0,-2.149990797E0,3.012214184E0,3.576713085E0
4.221435689E0,-2.077614784E0,3.241617680E0,3.426875114E0
4.226453450E0,-1.924355268E0,3.411314011E0,3.178524017E0
4.231471210E0,-1.705758333E0,3.555691242E0,2.902832508E0
4.236488971E0,-1.437339783E0,3.656777859E0,2.560647964E0
4.241506731E0,-1.100745559E0,3.696955204E0,2.141294003E0
4.246524492E0,-5.624008179E-1,3.510818481E0,1.858516693E0
4.251542252E0,-3.509469330E-3,3.263275146E0,1.466587543E0
4.256560012E0,5.015646815E-1,2.946892262E0,1.126568317E0
4.261577773E0,9.081124663E-1,2.563196182E0,9.137401581E-1
4.266595533E0,1.291488767E0,2.055508614E0,1.071340084E0
4.271613294E0,1.530916929E0,1.332516670E0,1.580282211E0
4.276631054E0,1.456511378E0,5.174612999E-1,2.513025284E0
4.281648814E0,1.044816732E0,-5.218219757E-2,3.684393406E0
4.286666575E0,4.817655981E-1,-3.938808441E-1,4.790372372E0
4.291684335E0,-8.493196964E-2,-7.115015984E-1,5.632387638E0
4.296702096E0,-6.174744368E-1,-9.933652878E-1,6.236730099E0
4.301719856E0,-1.101783872E0,-1.251766205E0,6.591357708E0
4.306737617E0,-1.556986094E0,-1.436684132E0,6.664947033E0
4.311755377E0,-1.992843866E0,-1.588576794E0,6.483255863E0
4.316773137E0,-2.443706989E0,-1.670652866E0,6.143270493E0
4.321790898E0,-2.858809710E0,-1.693106174E0,5.655183792E0
4.326808658E0,-3.139853954E0,-1.703237057E0,4.947075844E0
4.331826419E0,-3.226490498E0,-1.695222378E0,4.018551350E0
4.336844179E0,-3.177480459E0,-1.614542484E0,2.978563786E0
4.341861939E0,-3.055873632E0,-1.487572193E0,1.839898586E0
4.346879700E0,-2.924193621E0,-1.340662003E0,6.774549484E-1
4.351897460E0,-2.762938976E0,-1.181198597E0,-4.243121147E-1
4.356915221E0,-2.648263454E0,-1.050362110E0,-1.390430450E0
4.361932981E0,-2.532065630E0,-9.559292793E-1,-2.165126324E0
4.366950742E0,-2.424021721E0,-8.822436333E-1,-2.797572613E0
4.371968502E0,-2.309788704E0,-8.186407089E-1,-3.346332550E0
4.376986262E0,-2.141457081E0,-7.977352142E-1,-3.826694489E0
4.382004023E0,-1.918681264E0,-8.140969276E-1,-4.167639256E0
4.387021783E0,-1.665025711E0,-8.672924042E-1,-4.427182198E0
4.392039544E0,-1.427437425E0,-9.570913315E-1,-4.629602432E0
4.397057304E0,-1.233275175E0,-1.121680260E0,-4.755959511E0
4.402075064E0,-1.081510901E0,-1.298563004E0,-4.701412201E0
4.407092825E0,-9.669952393E-1,-1.473609924E0,-4.466027260E0
4.412110585E0,-8.562271595E-1,-1.613686562E0,-4.121479034E0
4.417128346E0,-7.493010163E-1,-1.743352413E0,-3.710397720E0
4.422146106E0,-6.366577148E-1,-1.824991703E0,-3.289668083E0
4.427163867E0,-5.040863752E-1,-1.931103706E0,-2.849072456E0
4.432181627E0,-3.706891537E-1,-2.048213005E0,-2.406930923E0
4.437199335E0,-2.508791387E-1,-2.148477077E0,-1.981582165E0
4.442217044E0,-1.540863365E-1,-2.232548714E0,-1.625035763E0
4.447234752E0,-8.019344509E-2,-2.272550106E0,-1.307809830E0
4.452252460E0,-3.836333752E-2,-2.317045689E0,-1.101012707E0
4.457270169E0,-4.220679402E-2,-2.333044529E0,-9.945497513E-1
4.462287877E0,-6.747373939E-2,-2.335258961E0,-8.780450821E-1
4.467305585E0,-1.236545444E-1,-2.300330162E0,-7.510871887E-1
4.472323294E0,-2.017218620E-1,-2.238118649E0,-6.469678879E-1
4.477341002E0,-2.639954686E-1,-2.149120331E0,-6.561594009E-1
4.482358710E0,-3.730360866E-1,-2.052881718E0,-7.064967155E-1
4.487376419E0,-4.911457300E-1,-1.949832916E0,-7.784790993E-1
4.492394127E0,-6.477941871E-1,-1.816411018E0,-8.000884056E-1
4.497411835E0,-8.055129051E-1,-1.648128033E0,-8.955435753E-1
4.502429544E0,-8.598302603E-1,-1.578942299E0,-1.026503086E0
4.507447252E0,-7.970108986E-1,-1.560704708E0,-1.188312054E0
4.512464960E0,-6.984301805E-1,-1.463855743E0,-1.395586491E0
4.517482669E0,-5.829679370E-1,-1.273939610E0,-1.610182285E0
4.522500377E0,-4.885331392E-1,-1.057691097E0,-1.784538269E0
4.527518085E0,-4.386723042E-1,-8.578877449E-1,-1.976329803E0
4.532535794E0,-3.422572613E-1,-7.267789841E-1,-2.171450615E0
4.537553502E0,-1.318722069E-1,-7.642979622E-1,-2.408485889E0
4.542571210E0,3.481800854E-2,-6.783890724E-1,-2.462702751E0
4.547588919E0,1.001174450E-1,-5.405330658E-1,-2.511587143E0
4.552606627E0,1.593716890E-1,-3.741679192E-1,-2.565119267E0
4.557624335E0,2.028783411E-1,-2.316083908E-1,-2.642675400E0
4.562642044E0,2.546822727E-1,-1.316657066E-1,-2.725320339E0
4.567659752E0,3.102940321E-1,-8.365297318E-2,-2.808431149E0
4.572677460E0,3.891667426E-1,-5.386972427E-2,-2.916055679E0
4.577695169E0,4.678592682E-1,-1.822853088E-2,-2.938308716E0
4.582712877E0,5.036149025E-1,5.693769455E-2,-2.899380207E0
4.587730585E0,5.494600534E-1,1.381311417E-1,-2.799391747E0
4.592748294E0,5.770108700E-1,2.205939293E-1,-2.667159081E0
4.597766002E0,5.957822800E-1,2.947220802E-1,-2.445304871E0
4.602783710E0,6.154166460E-1,3.556213379E-1,-2.191239357E0
4.607801419E0,6.597676277E-1,3.648862839E-1,-1.943130970E0
4.612819179E0,7.146215439E-1,3.078193665E-1,-1.657610893E0
4.617836939E0,7.848373652E-1,2.223405838E-1,-1.382217884E0
4.622854700E0,8.849807978E-1,2.039213181E-1,-1.193306923E0
4.627872460E0,9.913554192E-1,2.523007393E-1,-9.710855484E-1
4.632890221E0,1.089670181E0,3.433504105E-1,-7.250657082E-1
4.637907981E0,1.179637313E0,4.098920822E-1,-4.933862686E-1
4.642925742E0,1.270689726E0,4.565668106E-1,-2.184996605E-1
4.647943502E0,1.310216784E0,4.640073776E-1,-3.894376755E-2
4.652961262E0,1.298290014E0,5.230050087E-1,8.853673935E-2
4.657979023E0,1.306693316E0,5.522413254E-1,2.165746689E-1
4.662996783E0,1.292153597E0,5.853538513E-1,4.024720192E-1
4.668014544E0,1.239818215E0,6.032195091E-1,5.887923241E-1
4.673032304E0,1.182915449E0,6.011137962E-1,7.516078949E-1
4.678050064E0,1.097235680E0,6.268529892E-1,9.101243019E-1
4.683067825E0,9.395704269E-1,7.378034592E-1,1.035655975E0
4.688085585E0,8.343629837E-1,8.144669533E-1,1.142458439E0
4.693103346E0,7.530038357E-1,8.617033958E-1,1.326167107E0
4.698121106E0,6.190625429E-1,9.418034554E-1,1.447926521E0
4.703138867E0,4.184991717E-1,1.064411640E0,1.574658871E0
4.708156627E0,2.135305107E-1,1.162656307E0,1.658425808E0
4.713174387E0,8.930116892E-3,1.289444447E0,1.727763653E0
4.718192148E0,-2.047840953E-1,1.401833534E0,1.787359715E0
4.723209908E0,-4.513566196E-1,1.595542431E0,1.827609539E0
4.728227669E0,-6.592589021E-1,1.822395325E0,1.906142712E0
4.733245429E0,-8.190670013E-1,2.062995911E0,1.946578979E0
4.738263189E0,-8.976868391E-1,2.269067287E0,2.025858402E0
4.743280950E0,-8.955918550E-1,2.459382057E0,2.010372639E0
4.748298710E0,-8.224411607E-1,2.629016876E0,1.943417072E0
4.753316471E0,-6.879573464E-1,2.821086884E0,1.834595680E0
4.758334231E0,-4.778399467E-1,2.968650818E0,1.707846165E0
4.763351992E0,-2.306667417E-1,3.048179150E0,1.601206303E0
4.768369752E0,1.931747794E-2,3.093844414E0,1.533332825E0
4.773387512E0,2.429048419E-1,3.163793087E0,1.460580349E0
4.778405273E0,4.681751728E-1,3.172551155E0,1.363337040E0
4.783423033E0,7.091955543E-1,3.097002506E0,1.221926689E0
4.788440794E0,1.004410028E0,2.923739910E0,1.026134014E0
4.793458554E0,1.368734360E0,2.634748459E0,7.847261429E-1
4.798476314E0,1.760005236E0,2.217126369E0,6.353015900E-1
4.803494075E0,2.121934175E0,1.720150948E0,6.148586273E-1
4.808511835E0,2.388403177E0,1.192681313E0,8.993792534E-1
4.813529596E0,2.439790249E0,7.117428780E-1,1.469042301E0
4.818547356E0,2.266401052E0,4.063000679E-1,2.113294125E0
4.823565117E0,1.810632229E0,3.424372673E-1,2.813624859E0
4.828582877E0,1.268190622E0,2.938466072E-1,3.518574715E0
4.833600637E0,8.346803188E-1,2.014632225E-1,4.181831360E0
4.838618398E0,5.148891807E-1,8.243942261E-2,4.618634701E0
4.843636158E0,3.139949441E-1,-8.929347992E-2,4.883573532E0
4.848653919E0,2.466421127E-1,-2.871365547E-1,5.021502495E0
4.853671679E0,2.171232700E-1,-4.698915482E-1,5.014780045E0
4.858689439E0,2.445412278E-1,-6.006517410E-1,4.697084904E0
4.863707200E0,2.811075449E-1,-7.616801262E-1,4.361062050E0
4.868724960E0,3.170879483E-1,-9.678802490E-1,3.925769806E0
4.873742721E0,3.625391126E-1,-1.133579254E0,3.291098595E0
4.878760481E0,4.521136880E-1,-1.230193138E0,2.571917534E0
4.883778242E0,6.012809277E-1,-1.324520588E0,1.868405342E0
4.888796002E0,8.061213493E-1,-1.435225010E0,1.165723801E0
4.893813762E0,1.067480326E0,-1.580718517E0,5.206460953E-1
4.898831523E0,1.251918554E0,-1.559213638E0,-7.716131210E-2
4.903849283E0,1.201547146E0,-1.374887943E0,-5.804781914E-1
4.908867044E0,1.016400695E0,-1.156051159E0,-9.852662086E-1
4.913884804E0,8.344130516E-1,-1.021093369E0,-1.335436344E0
4.918902564E0,7.169690728E-1,-9.879369736E-1,-1.622189999E0
4.923920325E0,6.775187850E-1,-9.979767799E-1,-1.860658169E0
4.928938085E0,6.915432215E-1,-1.093017578E0,-2.104348183E0
4.933955846E0,7.731049061E-1,-1.286285877E0,-2.411418915E0
4.938973606E0,8.506909013E-1,-1.404482365E0,-2.725258827E0
4.943991367E0,8.722479939E-1,-1.509019375E0,-3.041853905E0
4.949009127E0,8.717336655E-1,-1.580228329E0,-3.304345131E0
4.954026887E0,8.108739853E-1,-1.626987457E0,-3.417758465E0
4.959044648E0,6.988825202E-1,-1.668350697E0,-3.348863125E0
4.964062408E0,5.492964983E-1,-1.737907410E0,-3.217270374E0
4.969080169E0,3.472880721E-1,-1.764331341E0,-3.065682888E0
4.974097929E0,1.308614016E-1,-1.791383743E0,-2.903116703E0
4.979115689E0,-1.241060495E-1,-1.829493046E0,-2.733639717E0
4.984133450E0,-3.651128113E-1,-1.826869011E0,-2.561352730E0
4.989151210E0,-6.162486076E-1,-1.812930107E0,-2.395266056E0
4.994168971E0,-8.108482361E-1,-1.797982693E0,-2.201283932E0
4.999186731E0,-9.971389174E-1,-1.787329674E0,-2.055519581E0
5.004204492E0,-1.160934091E0,-1.786159992E0,-1.957581520E0
5.009222252E0,-1.292564869E0,-1.809294701E0,-1.859233856E0
5.014240012E0,-1.386855125E0,-1.799752235E0,-1.769761086E0
5.019257773E0,-1.434169292E0,-1.743642330E0,-1.674516678E0
5.024275481E0,-1.486914515E0,-1.670145988E0,-1.597136497E0
5.029293189E0,-1.497106791E0,-1.584321022E0,-1.532656670E0
5.034310898E0,-1.464824200E0,-1.496171951E0,-1.452062130E0
5.039328606E0,-1.409263611E0,-1.377387047E0,-1.388579369E0
5.044346314E0,-1.272973895E0,-1.266479969E0,-1.399435997E0
5.049364023E0,-1.098691225E0,-1.182793617E0,-1.470072746E0
5.054381731E0,-9.099801183E-1,-1.102353096E0,-1.567001820E0
5.059399439E0,-7.401958704E-1,-1.029718399E0,-1.642538071E0
5.064417148E0,-6.085387468E-1,-9.503197670E-1,-1.749454975E0
5.069434856E0,-5.293511152E-1,-8.591656685E-1,-1.816123486E0
5.074452564E0,-5.073311329E-1,-7.751736641E-1,-1.881009579E0
5.079470273E0,-5.232609510E-1,-6.646304131E-1,-1.977747917E0
5.084487981E0,-5.291923881E-1,-5.510787964E-1,-2.087464333E0
5.089505689E0,-4.962107241E-1,-4.437890053E-1,-2.191244602E0
5.094523398E0,-4.194990098E-1,-3.328437805E-1,-2.289352894E0
5.099541106E0,-3.323054314E-1,-2.416710854E-1,-2.406098843E0
5.104558814E0,-2.488827407E-1,-1.458950043E-1,-2.489196777E0
5.109576523E0,-1.452550292E-1,-4.987144470E-2,-2.539026260E0
5.114594231E0,-4.994118214E-2,5.151557922E-2,-2.579823017E0
5.119611939E0,4.669409990E-2,1.346659660E-1,-2.654899597E0
5.124629648E0,1.352176070E-1,2.093358040E-1,-2.663933754E0
5.129647356E0,2.014869452E-1,2.900609970E-1,-2.659779549E0
5.134665064E0,2.503945231E-1,3.578448296E-1,-2.666488647E0
5.139682773E0,3.057858944E-1,4.367313385E-1,-2.612399101E0
5.144700481E0,3.579769135E-1,5.411190987E-1,-2.535890102E0
5.149718189E0,4.161062837E-1,6.182932854E-1,-2.484717846E0
5.154735898E0,4.178360701E-1,6.779346466E-1,-2.391950607E0
5.159753606E0,3.678504229E-1,7.343459129E-1,-2.310178280E0
5.164771314E0,2.996597290E-1,7.397260666E-1,-2.234616756E0
5.169789023E0,2.516204715E-1,7.609839439E-1,-2.155606270E0
5.174806731E0,2.093779445E-1,8.174004555E-1,-2.030241489E0
5.179824439E0,1.967971623E-1,9.233756065E-1,-1.796476841E0
5.184842148E0,1.848218441E-1,9.832954407E-1,-1.492753983E0
5.189859856E0,1.395612359E-1,1.016521931E0,-1.186222553E0
5.194877564E0,9.447288513E-2,1.013571262E0,-8.769116402E-1
5.199895273E0,3.022837639E-2,9.985675812E-1,-4.358124733E-1
5.204912981E0,-3.931865096E-2,1.014616966E0,-6.563186646E-3
5.209930742E0,-8.573998511E-2,1.066676617E0,4.107027054E-1
5.214948502E0,-7.577200234E-2,1.145307064E0,8.206739426E-1
5.219966262E0,-5.761985481E-2,1.217090130E0,1.318964005E0
5.224984023E0,-7.506960630E-2,1.272118092E0,1.829270840E0
5.230001783E0,-1.095409989E-1,1.357671261E0,2.280317783E0
5.235019544E0,-1.374398470E-1,1.525425911E0,2.672894001E0
5.240038450E0,-1.157567203E-1,1.702432632E0,3.060528755E0
5.245056210E0,-6.361186504E-2,1.882631779E0,3.362875462E0
5.250073971E0,2.424311638E-2,2.079145432E0,3.576143742E0
5.255091679E0,1.819665730E-1,2.357625961E0,3.667873383E0
5.260109387E0,4.107304811E-1,2.678671837E0,3.610231400E0
5.265127096E0,6.876602173E-1,2.969834328E0,3.461221695E0
5.270144804E0,9.943569303E-1,3.116471767E0,3.201712132E0
5.275162512E0,1.273719907E0,3.110025406E0,2.874252796E0
5.280180221E0,1.477936387E0,3.028247833E0,2.478155136E0
5.285197929E0,1.573601961E0,2.929967880E0,2.050765991E0
5.290215637E0,1.584376454E0,2.792815208E0,1.662735939E0
5.295233346E0,1.581886053E0,2.561094284E0,1.231476307E0
5.300251054E0,1.537934303E0,2.241474152E0,8.035144806E-1
5.305268762E0,1.482010007E0,1.749838829E0,4.300279617E-1
5.310286471E0,1.434134483E0,1.112137794E0,3.199892044E-1
5.315304179E0,1.346336722E0,5.259652138E-1,6.107954979E-1
5.320321887E0,1.045302033E0,1.116681099E-1,1.057490349E0
5.325339596E0,5.154163241E-1,-2.216782570E-1,1.765110493E0
5.330357304E0,-7.761662453E-2,-5.131573677E-1,2.882277966E0
5.335375012E0,-6.444914341E-1,-6.832237244E-1,4.008167267E0
5.340392721E0,-1.090288997E0,-7.725744247E-1,5.158904076E0
5.345410429E0,-1.377174258E0,-8.510704041E-1,6.130890846E0
5.350428137E0,-1.552809715E0,-9.409351349E-1,6.864355087E0
5.355445846E0,-1.626012921E0,-9.925146103E-1,7.313768387E0
5.360463554E0,-1.619403958E0,-9.030423164E-1,7.208412170E0
5.365481262E0,-1.622794032E0,-9.087104797E-1,7.214730263E0
5.370498971E0,-1.650971532E0,-1.035203934E0,7.041983604E0
5.375516679E0,-1.660697937E0,-1.068203449E0,6.557081223E0
5.380534387E0,-1.608462572E0,-9.362564087E-1,5.846567154E0
5.385552096E0,-1.570575833E0,-7.149367332E-1,4.981720924E0
5.390569804E0,-1.561241508E0,-5.462541580E-1,4.019145966E0
5.395587512E0,-1.566223860E0,-5.191936493E-1,3.077408791E0
5.400605221E0,-1.537960291E0,-5.647177696E-1,2.155296326E0
5.405622929E0,-1.481383443E0,-5.997085571E-1,1.266042709E0
5.410640637E0,-1.420714259E0,-5.366024971E-1,5.282020569E-1
5.415658346E0,-1.327584147E0,-4.937396049E-1,-1.214900017E-1
5.420676054E0,-1.164017081E0,-5.607662201E-1,-6.696357727E-1
5.425693762E0,-1.016605735E0,-7.031054497E-1,-1.140990734E0
5.430711471E0,-8.612821698E-1,-8.765935898E-1,-1.632085800E0
5.435729179E0,-6.786096096E-1,-1.013352394E0,-2.043179035E0
5.440746939E0,-4.873322248E-1,-1.084080219E0,-2.379712582E0
5.445764700E0,-3.111638427E-1,-1.164777756E0,-2.661447048E0
5.450782460E0,-1.400194466E-1,-1.245319366E0,-2.927214146E0
5.455800221E0,7.879725099E-2,-1.181983471E0,-2.966885567E0
5.460817981E0,2.922317982E-1,-1.185378075E0,-2.919514179E0
5.465835742E0,5.145053864E-1,-1.308188438E0,-2.866443634E0
5.470853502E0,6.979773045E-1,-1.502556801E0,-2.836326599E0
5.475871262E0,8.571380377E-1,-1.639623165E0,-2.714101791E0
5.480889023E0,9.682368636E-1,-1.762975216E0,-2.609517574E0
5.485906783E0,1.031295300E0,-1.830058575E0,-2.517401695E0
5.490924544E0,1.075527310E0,-1.875009537E0,-2.394220352E0
5.495942304E0,1.067554593E0,-1.931917667E0,-2.273018837E0
5.500960064E0,9.740772843E-1,-1.929657936E0,-2.186767101E0
5.505977825E0,8.191736341E-1,-1.921744823E0,-2.120411873E0
5.510995585E0,6.218642592E-1,-1.851588726E0,-1.996784687E0
5.516013346E0,3.484611511E-1,-1.806106091E0,-1.954061031E0
5.521031106E0,3.247125447E-2,-1.737986088E0,-1.963025093E0
5.526048867E0,-2.975819111E-1,-1.681112766E0,-1.970718384E0
5.531066627E0,-6.277892590E-1,-1.635681629E0,-1.976988316E0
5.536084387E0,-9.442040920E-1,-1.554021358E0,-2.043883324E0
5.541102148E0,-1.204088092E0,-1.488698006E0,-2.137920380E0
5.546119908E0,-1.450499296E0,-1.415688515E0,-2.326087952E0
5.551137669E0,-1.578027368E0,-1.229572773E0,-2.531912327E0
5.556155429E0,-1.495661378E0,-1.011700630E0,-2.712399960E0
5.561173189E0,-1.346892238E0,-8.574991226E-1,-2.848647594E0
5.566190950E0,-1.121842861E0,-7.237567902E-1,-2.950342655E0
5.571208710E0,-9.064399600E-1,-6.151833534E-1,-3.027126312E0
5.576226471E0,-7.053341866E-1,-5.411438942E-1,-3.074374199E0
5.581244231E0,-5.329184532E-1,-4.632506371E-1,-3.111314297E0
5.586261992E0,-4.178552032E-1,-3.334779739E-1,-3.138116837E0
5.591279752E0,-3.221899867E-1,-2.568984032E-1,-3.159733772E0
5.596297512E0,-2.365907729E-1,-2.283744812E-1,-3.166826248E0
5.601315273E0,-1.995402724E-1,-1.519522667E-1,-3.193078995E0
5.606333033E0,-1.583648026E-1,-6.570482254E-2,-3.229097843E0
5.611350794E0,-1.033168137E-1,-1.714324951E-2,-3.227308273E0
5.616368554E0,-4.875379801E-2,-3.941583633E-2,-3.135380745E0
5.621386314E0,-2.332085371E-2,-6.524229050E-2,-3.011011124E0
5.626404075E0,5.912475288E-2,-7.533121109E-2,-2.921326160E0
5.631421835E0,9.391994774E-2,-5.520296097E-2,-2.837729931E0
5.636439596E0,1.532153636E-1,-4.790163040E-2,-2.683739662E0
5.641457356E0,2.040292472E-1,-5.346059799E-2,-2.464206219E0
5.646475117E0,2.703899741E-1,-8.155488968E-2,-2.183903217E0
5.651492877E0,3.142228723E-1,-1.275005341E-1,-1.895420551E0
5.656510637E0,3.499668837E-1,-1.629080772E-1,-1.588945866E0
5.661528398E0,3.778105676E-1,-1.498999596E-1,-1.288125038E0
5.666546158E0,4.121919870E-1,-1.510763168E-1,-9.591808319E-1
5.671563919E0,4.674826860E-1,-1.525249481E-1,-6.209177971E-1
5.676581679E0,5.196040869E-1,-1.164741516E-1,-3.016443253E-1
5.681599439E0,5.877713561E-1,-6.251001358E-2,1.333618164E-2
5.686617200E0,6.911110878E-1,-7.143020630E-4,2.861671448E-1
5.691634960E0,7.958979607E-1,6.853723526E-2,4.885120392E-1
5.696652721E0,9.401946664E-1,1.451082230E-1,6.301364899E-1
5.701670481E0,1.114169836E0,2.433342934E-1,7.685251236E-1
5.706688242E0,1.279261947E0,3.681359291E-1,8.413929939E-1
5.711706002E0,1.449336886E0,5.005626678E-1,9.491095543E-1
5.716723762E0,1.614449024E0,5.835056305E-1,1.053157806E0
5.721741523E0,1.717136860E0,6.315841675E-1,1.139036655E0
5.726759283E0,1.743049741E0,6.832351685E-1,1.206672192E0
5.731777044E0,1.711589813E0,6.814837456E-1,1.222270966E0
5.736794804E0,1.594314575E0,6.983890533E-1,1.262208939E0
5.741812564E0,1.458441973E0,7.438702583E-1,1.302231312E0
5.746830325E0,1.327930212E0,7.752242088E-1,1.408981800E0
5.751848085E0,1.169435978E0,8.596687317E-1,1.563037872E0
5.756865846E0,9.589769840E-1,1.083507538E0,1.735403538E0
5.761883606E0,7.442345023E-1,1.346258163E0,1.997686863E0
5.766901367E0,5.776517391E-1,1.609531403E0,2.163325787E0
5.771919127E0,4.449550211E-1,1.820477486E0,2.280463696E0
5.776936887E0,3.416072130E-1,1.959627151E0,2.277763367E0
5.781954648E0,3.348700404E-1,2.069672108E0,2.217919350E0
5.786972356E0,4.533041418E-1,2.198110104E0,2.187404156E0
5.791990064E0,6.433897614E-1,2.325747490E0,2.071453094E0
5.797007773E0,8.373399973E-1,2.471872807E0,1.908308506E0
5.802025481E0,1.015291095E0,2.655869007E0,1.712141037E0
5.807043189E0,1.162253261E0,2.878204823E0,1.487326622E0
5.812060898E0,1.359181881E0,2.952906609E0,1.199898243E0
5.817078606E0,1.538967609E0,3.048373699E0,9.352774620E-1
5.822096992E0,1.725260377E0,3.146194935E0,7.788462639E-1
5.827114335E0,1.936907887E0,3.098940849E0,6.340789795E-1
5.832131679E0,2.188601017E0,2.931327343E0,5.195274353E-1
5.837149023E0,2.456919670E0,2.730216503E0,4.298138618E-1
5.842166367E0,2.713820934E0,2.415143490E0,3.881325722E-1
5.847183762E0,2.888694763E0,2.006062984E0,3.603749275E-1
5.852201210E0,2.901532650E0,1.570426941E0,4.944963455E-1
5.857218710E0,2.709969997E0,1.160878181E0,8.142900467E-1
5.862236262E0,2.405390501E0,7.914762497E-1,1.233777046E0
5.867253867E0,2.036004305E0,4.422698021E-1,1.686669350E0
5.872271523E0,1.644838452E0,1.076064110E-1,2.231168747E0
5.877289231E0,1.327171564E0,-2.187018394E-1,2.844535351E0
5.882306992E0,1.091769695E0,-5.240216255E-1,3.466009140E0
5.887324804E0,9.331057072E-1,-7.528171539E-1,4.006242752E0
5.892342669E0,8.458150029E-1,-9.164562225E-1,4.418860912E0
5.897360585E0,8.249900937E-1,-1.011943817E0,4.710081100E0
5.902378554E0,8.512226343E-1,-1.098361969E0,4.842940331E0
5.907396575E0,9.055140615E-1,-1.148238182E0,4.799303532E0
5.912414648E0,9.686798453E-1,-1.205619335E0,4.646948338E0
5.917432721E0,1.045489907E0,-1.223201275E0,4.343257427E0
5.922450794E0,1.088046432E0,-1.248990536E0,3.859744549E0
5.927468867E0,1.115493655E0,-1.267936230E0,3.200851440E0
5.932486887E0,1.122958422E0,-1.307519913E0,2.461516857E0
5.937504596E0,1.100691199E0,-1.351964474E0,1.736444950E0
5.942522304E0,1.072393179E0,-1.395028591E0,1.043678761E0
5.947540012E0,1.014013052E0,-1.401998043E0,3.487868309E-1
5.952557721E0,9.160224795E-1,-1.376717567E0,-2.772183418E-1
5.957575429E0,8.741022348E-1,-1.466506958E0,-8.160328865E-1
5.962593137E0,8.500040770E-1,-1.546123981E0,-1.292253971E0
5.967610846E0,8.294483423E-1,-1.619573593E0,-1.725708485E0
5.972628554E0,8.461445570E-1,-1.714736462E0,-2.136240005E0
5.977646262E0,8.667297363E-1,-1.783028603E0,-2.457520962E0
5.982663971E0,8.867405057E-1,-1.857356071E0,-2.737994194E0
5.987681679E0,8.827526569E-1,-1.937317848E0,-2.997186184E0
5.992699387E0,9.274473190E-1,-2.041563511E0,-3.230770111E0
5.997717096E0,9.355896711E-1,-2.126793385E0,-3.391181946E0
6.002734804E0,8.553344607E-1,-2.188054085E0,-3.459573269E0
6.007752512E0,7.539780140E-1,-2.278148651E0,-3.459840298E0
6.012770221E0,5.887780786E-1,-2.368673563E0,-3.420495033E0
6.017787929E0,3.883777559E-1,-2.407370329E0,-3.322141647E0
6.022805637E0,1.621921062E-1,-2.418976545E0,-3.159427166E0
6.027823346E0,-3.287565708E-2,-2.366018057E0,-2.960479259E0
6.032841054E0,-2.065926790E-1,-2.354549170E0,-2.829925537E0
6.037858762E0,-3.831185400E-1,-2.342156649E0,-2.695386410E0
6.042876471E0,-5.530661941E-1,-2.276926279E0,-2.561102390E0
6.047894179E0,-7.310601473E-1,-2.183535814E0,-2.426528931E0
6.052911887E0,-8.984985352E-1,-2.081982374E0,-2.243204594E0
6.057929596E0,-1.065705180E0,-1.963257313E0,-2.120772839E0
6.062947304E0,-1.209279656E0,-1.827896595E0,-2.044440269E0
6.067965012E0,-1.310728312E0,-1.657355785E0,-1.970707417E0
6.072982721E0,-1.356253982E0,-1.485505581E0,-1.937594891E0
6.078000429E0,-1.327035189E0,-1.307715893E0,-1.930626392E0
6.083018137E0,-1.213614941E0,-1.133744240E0,-2.040528774E0
6.088035846E0,-1.053772569E0,-9.588689804E-1,-2.204980850E0
6.093053554E0,-8.707978725E-1,-7.876749039E-1,-2.371489048E0
6.098071262E0,-7.026122212E-1,-6.342153549E-1,-2.545058727E0
6.103088971E0,-5.490961075E-1,-4.836554527E-1,-2.726018429E0
6.108106679E0,-4.722134471E-1,-1.970396042E-1,-2.852377415E0
6.113124387E0,-4.719092846E-1,-1.342868805E-2,-2.933924198E0
6.118142096E0,-3.376212120E-1,-4.222202301E-2,-2.999739170E0
6.123159804E0,-2.176828086E-1,-3.391981125E-2,-3.059798241E0
6.128177512E0,-1.694690436E-1,2.137565613E-2,-2.956559181E0
6.133195273E0,-1.650263071E-1,1.478519440E-1,-2.838689327E0
6.138213033E0,-2.004139274E-1,3.219704628E-1,-2.792596340E0
6.143230794E0,-2.280800343E-1,5.202655792E-1,-2.852029800E0
6.148248554E0,-2.378124744E-1,6.951708794E-1,-2.911880970E0
6.153266314E0,-2.241024822E-1,7.896156311E-1,-2.929355145E0
6.158284075E0,-1.865290105E-1,8.183364868E-1,-2.876049042E0
6.163301835E0,-1.632273346E-1,8.678689003E-1,-2.790602207E0
6.168319596E0,-1.350967884E-1,8.621249199E-1,-2.697316170E0
6.173337356E0,-1.017726213E-1,9.019775391E-1,-2.586939812E0
6.178355117E0,-1.344924867E-1,1.073827744E0,-2.383285522E0
6.183372877E0,-1.228206605E-1,1.157775879E0,-2.105809212E0
6.188390637E0,-1.048288196E-1,1.148986340E0,-1.730575085E0
6.193408398E0,-8.967672288E-2,1.195542812E0,-1.314887524E0
6.198426158E0,-1.343642771E-1,1.277677536E0,-9.109787941E-1
6.203443919E0,-1.811312288E-1,1.365998268E0,-4.753003120E-1
6.208461679E0,-3.017552793E-1,1.488454342E0,-3.601980209E-2
6.213479439E0,-4.199377596E-1,1.615571499E0,3.643879890E-1
6.218497200E0,-5.410357118E-1,1.732509136E0,7.024521828E-1
6.223514960E0,-6.702961326E-1,1.815032959E0,1.007209301E0
6.228532721E0,-7.844238877E-1,1.910758495E0,1.250215054E0
6.233550481E0,-8.649798036E-1,2.043577194E0,1.455477715E0
6.238568242E0,-9.123247266E-1,2.160866737E0,1.575198650E0
6.243586002E0,-8.980844021E-1,2.200719833E0,1.681044579E0
6.248603762E0,-8.222109675E-1,2.172990322E0,1.772882938E0
6.253621523E0,-7.229788303E-1,2.144955635E0,1.860114574E0
6.258639283E0,-6.385109425E-1,2.203069687E0,1.952036381E0
6.263657044E0,-4.824354351E-1,2.213558197E0,2.096284866E0
6.268674804E0,-4.077140093E-1,2.291251183E0,2.230628014E0
6.273692564E0,-3.186221123E-1,2.373672009E0,2.493928909E0
6.278710325E0,-1.627447605E-1,2.426987648E0,2.795413017E0
6.283728085E0,-7.058389485E-3,2.608273029E0,3.116460800E0
6.288745846E0,1.868925691E-1,2.792117119E0,3.452908516E0
6.293763606E0,4.045079947E-1,2.954039574E0,3.647311211E0
6.298781367E0,6.169994473E-1,3.122804165E0,3.661558151E0
6.303799127E0,8.103690743E-1,3.298747063E0,3.505188942E0
6.308816887E0,9.230678678E-1,3.511073112E0,3.225868225E0
6.313834648E0,9.220697284E-1,3.688824654E0,2.899686813E0
6.318852408E0,8.601617813E-1,3.790039539E0,2.583357811E0
6.323870169E0,7.897285223E-1,3.792026520E0,2.309543610E0
6.328887929E0,7.533711791E-1,3.701114655E0,2.038911819E0
6.333905689E0,7.844913006E-1,3.504539490E0,1.808668137E0
6.338923450E0,7.924823165E-1,3.275775433E0,1.718054771E0
6.343941210E0,7.915532589E-1,2.934921265E0,1.861607552E0
6.348958971E0,8.147196770E-1,2.420852661E0,2.310192108E0
6.353976731E0,7.556481361E-1,1.844111919E0,2.991558075E0
6.358994492E0,6.135448813E-1,1.285735130E0,3.781451225E0
6.364012252E0,4.021306038E-1,7.787084579E-1,4.627619743E0
6.369030012E0,1.450162679E-1,3.026671410E-1,5.464018822E0
6.374047773E0,-1.572252214E-1,-1.537132263E-1,6.225046158E0
6.379065533E0,-4.362210631E-1,-5.733976364E-1,6.759281158E0
6.384083294E0,-7.671959400E-1,-9.254369736E-1,7.360438347E0
6.389101054E0,-1.096576691E0,-1.260910034E0,7.805677414E0
6.394118814E0,-1.356683254E0,-1.573461771E0,7.996661186E0
6.399136575E0,-1.652405143E0,-1.746263981E0,7.911286354E0
6.404154335E0,-1.978995204E0,-1.805452824E0,7.608323097E0
6.409172096E0,-2.275006294E0,-1.809793234E0,7.074227333E0
6.414189856E0,-2.575106144E0,-1.769721985E0,6.410021782E0
6.419207617E0,-2.803648949E0,-1.675625324E0,5.615703583E0
6.424225377E0,-2.966329813E0,-1.579527378E0,4.710146904E0
6.429243137E0,-3.001684666E0,-1.370284319E0,3.702406883E0
6.434260898E0,-2.872040033E0,-1.136883736E0,2.672786713E0
6.439278658E0,-2.640398979E0,-1.049075603E0,1.605576515E0
6.444296419E0,-2.364781857E0,-1.046557903E0,5.805263519E-1
6.449314179E0,-2.131329298E0,-1.098303795E0,-3.798265457E-1
6.454331887E0,-2.040477514E0,-1.125634670E0,-1.238602638E0
6.459349596E0,-2.010853052E0,-1.122141361E0,-1.930055618E0
6.464367304E0,-2.028370380E0,-1.067281246E0,-2.517563343E0
6.469385012E0,-2.030879021E0,-1.017350674E0,-2.987737656E0
6.474402721E0,-1.965505600E0,-1.057596684E0,-3.355682850E0
6.479420429E0,-1.861041069E0,-1.144320488E0,-3.593265057E0
6.484438137E0,-1.702847600E0,-1.262922287E0,-3.667344570E0
6.489455846E0,-1.485774994E0,-1.427732468E0,-3.635521412E0
6.494473554E0,-1.247671962E0,-1.600804806E0,-3.512022495E0
6.499491262E0,-1.050132036E0,-1.753940821E0,-3.344422817E0
6.504508971E0,-8.780725002E-1,-1.868666887E0,-3.065363884E0
6.509526679E0,-7.498569489E-1,-1.979622602E0,-2.774629593E0
6.514544387E0,-6.214812398E-1,-2.078406811E0,-2.480984211E0
6.519562096E0,-5.115079880E-1,-2.152066231E0,-2.121318817E0
6.524579804E0,-4.054403603E-1,-2.187444210E0,-1.790592194E0
6.529597512E0,-3.366205990E-1,-2.180920362E0,-1.550203800E0
6.534615221E0,-3.047678173E-1,-2.171698332E0,-1.389898777E0
6.539632929E0,-2.567867339E-1,-2.141455173E0,-1.323414326E0
6.544650637E0,-2.114580870E-1,-2.100318909E0,-1.312045574E0
6.549668346E0,-1.779455245E-1,-2.077397823E0,-1.384178638E0
6.554686054E0,-1.798981875E-1,-2.034672737E0,-1.553902149E0
6.559703762E0,-1.836677790E-1,-2.005813599E0,-1.734904289E0
6.564721471E0,-1.990754157E-1,-1.952398777E0,-1.893780708E0
6.569739179E0,-2.219096124E-1,-1.859782457E0,-2.083355904E0
6.574756887E0,-2.718921304E-1,-1.751591921E0,-2.318121433E0
6.579774596E0,-3.304753602E-1,-1.627250671E0,-2.555333614E0
6.584792304E0,-3.648606241E-1,-1.495702744E0,-2.790594101E0
6.589810012E0,-3.611364067E-1,-1.399411201E0,-3.052959919E0
6.594827721E0,-3.483990431E-1,-1.323405743E0,-3.290156841E0
6.599845429E0,-3.220705092E-1,-1.267215252E0,-3.521634102E0
6.604863137E0,-3.299048841E-1,-1.173073292E0,-3.757201195E0
6.609880846E0,-3.337326646E-1,-1.050239086E0,-3.901442528E0
6.614898554E0,-3.576132059E-1,-9.175772667E-1,-4.050330639E0
6.619916262E0,-3.585734963E-1,-8.035712242E-1,-4.180104256E0
6.624933971E0,-3.750293851E-1,-7.605071068E-1,-4.286223412E0
6.629951679E0,-3.591468632E-1,-7.306556702E-1,-4.344999313E0
6.634969387E0,-3.732408285E-1,-6.946663857E-1,-4.342302322E0
6.639987096E0,-3.837389946E-1,-6.476511955E-1,-4.354829788E0
6.645004804E0,-3.667377532E-1,-5.892548561E-1,-4.344597340E0
6.650022512E0,-3.031125665E-1,-5.767273903E-1,-4.321333885E0
6.655040221E0,-2.069528848E-1,-5.811781883E-1,-4.242156982E0
6.660057929E0,-1.354862750E-1,-5.448503494E-1,-4.193520546E0
6.665075689E0,-5.490961671E-2,-5.152344704E-1,-4.118337631E0
6.670093450E0,4.487460852E-2,-5.159783363E-1,-4.012123108E0
6.675111210E0,1.260092258E-1,-4.893555641E-1,-3.860857964E0
6.680128971E0,1.888505220E-1,-5.166563988E-1,-3.674252033E0
6.685146731E0,2.336466312E-1,-5.501408577E-1,-3.394878864E0
6.690164492E0,2.365427613E-1,-5.517253876E-1,-3.056205750E0
6.695182252E0,2.118656635E-1,-5.121397972E-1,-2.696369171E0
6.700200012E0,1.643522382E-1,-4.510083199E-1,-2.358083248E0
6.705217773E0,1.275511980E-1,-3.927907944E-1,-2.017001629E0
6.710235533E0,1.205955148E-1,-3.140196800E-1,-1.639300823E0
6.715253294E0,1.383705139E-1,-2.105007172E-1,-1.272381306E0
6.720271054E0,1.900553107E-1,-1.114888191E-1,-9.588255882E-1
6.725288814E0,2.609189153E-1,-1.265573502E-2,-6.312246323E-1
6.730306575E0,3.458119035E-1,1.047520638E-1,-3.227491379E-1
6.735324335E0,4.346421957E-1,2.452387810E-1,-3.791093826E-2
6.740342096E0,5.222579837E-1,3.750753403E-1,2.570023537E-1
6.745359856E0,6.037104130E-1,5.372538567E-1,4.998760223E-1
6.750377617E0,6.743031144E-1,7.172169685E-1,7.291617393E-1
6.755395377E0,7.486742735E-1,8.573765755E-1,9.401993752E-1
6.760413137E0,7.937777042E-1,1.000682354E0,1.137856483E0
6.765430898E0,8.483876586E-1,1.147032261E0,1.288694382E0
6.770448658E0,8.891309500E-1,1.291638374E0,1.364010811E0
6.775466419E0,9.165358543E-1,1.415536880E0,1.401966572E0
6.780484179E0,9.359852076E-1,1.514298439E0,1.402280331E0
6.785501939E0,9.383830428E-1,1.636148930E0,1.417254925E0
6.790519700E0,9.003821015E-1,1.795881271E0,1.379475594E0
6.795537460E0,8.032554984E-1,2.017865181E0,1.336386681E0
6.800555221E0,6.665270329E-1,2.254629612E0,1.292395592E0
6.805572981E0,5.288259983E-1,2.530334949E0,1.295072079E0
6.810590742E0,3.995721340E-1,2.840285778E0,1.344267845E0
6.815608502E0,2.349928617E-1,3.136908054E0,1.382407665E0
6.820626262E0,1.443458796E-1,3.353671074E0,1.428431034E0
6.825644023E0,5.012285709E-2,3.562657833E0,1.463135719E0
6.830661783E0,3.753310442E-2,3.730658054E0,1.491242886E0
6.835679544E0,9.638708830E-2,3.824641228E0,1.517323017E0
6.840697304E0,1.732453108E-1,3.926351070E0,1.636873245E0
6.845715064E0,3.528231978E-1,3.940857410E0,1.854201794E0
6.850732825E0,5.862859488E-1,3.868760586E0,2.116360664E0
6.855750585E0,8.825404048E-1,3.614919186E0,2.485298634E0
6.860768346E0,1.136299849E0,3.194431782E0,2.855359077E0
6.865786106E0,1.276367903E0,2.650698185E0,3.379520416E0
6.870803867E0,1.284056664E0,2.088976860E0,4.014715195E0
6.875821627E0,1.169941306E0,1.590229511E0,4.636759758E0
6.880839387E0,1.011654019E0,1.119957447E0,5.327650070E0
6.885857148E0,8.775681257E-1,6.336865425E-1,5.997339249E0
6.890874908E0,7.265268564E-1,1.391415596E-1,6.575202942E0
6.895892669E0,5.701869726E-1,-3.371839523E-1,7.096042633E0
6.900910429E0,4.388874769E-1,-7.977862358E-1,7.551716805E0
6.905928189E0,3.286641836E-1,-1.192607403E0,7.924594879E0
6.910945950E0,2.681144476E-1,-1.466701508E0,8.173114777E0
6.915963710E0,2.610843182E-1,-1.583798647E0,8.198136330E0
6.920981471E0,2.774645090E-1,-1.564704657E0,7.953097343E0
6.925999231E0,3.206712008E-1,-1.458046913E0,7.410132408E0
6.931016992E0,3.606160879E-1,-1.316468716E0,6.665374756E0
6.936034752E0,3.623840809E-1,-1.167854309E0,5.757035255E0
6.941052512E0,3.055278063E-1,-1.044194221E0,4.694211960E0
6.946070273E0,1.745160818E-1,-9.197387695E-1,3.547970772E0
6.951088033E0,2.138566971E-2,-8.451581001E-1,2.379563332E0
6.956105742E0,-7.793396711E-2,-7.850241661E-1,1.326682091E0
6.961123450E0,-1.383391023E-1,-7.470731735E-1,3.403234482E-1
6.966141158E0,-1.506403685E-1,-7.630329132E-1,-5.328164101E-1
6.971158867E0,-1.052663922E-1,-8.123383522E-1,-1.317697048E0
6.976176575E0,-2.248585224E-3,-8.840632439E-1,-1.996216774E0
6.981194283E0,1.442431211E-1,-1.015488148E0,-2.502284050E0
6.986211992E0,3.057512045E-1,-1.167399883E0,-2.899000168E0
6.991229700E0,4.493054152E-1,-1.272211552E0,-3.249249935E0
6.996247408E0,6.238024235E-1,-1.439891338E0,-3.534233570E0
7.001265117E0,8.209158182E-1,-1.655693054E0,-3.701914310E0
7.006282825E0,9.892418385E-1,-1.780454636E0,-3.973003864E0
7.011300533E0,1.096580386E0,-1.857146263E0,-4.170842171E0
7.016318242E0,1.125120759E0,-2.005056858E0,-4.372579575E0
7.021335950E0,1.109764457E0,-2.127989769E0,-4.612351418E0
7.026353658E0,1.027317524E0,-2.206636906E0,-4.737435341E0
7.031371367E0,8.208597898E-1,-2.188047409E0,-4.844076157E0
7.036389075E0,5.288697481E-1,-2.153700829E0,-4.831878662E0
7.041406783E0,1.750334501E-1,-2.156621456E0,-4.667163849E0
7.046424492E0,-1.357643604E-1,-2.293147326E0,-4.445108891E0
7.051442200E0,-4.374554157E-1,-2.358360052E0,-4.270195484E0
7.056459908E0,-7.400686741E-1,-2.372265577E0,-4.089018822E0
7.061477617E0,-1.015466213E0,-2.369045496E0,-3.881819725E0
7.066495325E0,-1.245462894E0,-2.349271059E0,-3.686282635E0
7.071513033E0,-1.435669065E0,-2.327884436E0,-3.468322277E0
7.076530742E0,-1.610962868E0,-2.334259748E0,-3.222514629E0
7.081548450E0,-1.767354608E0,-2.278046846E0,-3.015317440E0
7.086566158E0,-1.900629044E0,-2.217366934E0,-2.831777573E0
7.091583867E0,-2.015879154E0,-2.119447947E0,-2.656976700E0
7.096601575E0,-2.032033920E0,-1.999500275E0,-2.475954056E0
7.101619283E0,-2.006826639E0,-1.848602295E0,-2.316971302E0
7.106636992E0,-1.911740065E0,-1.686703205E0,-2.126849651E0
7.111654700E0,-1.766097546E0,-1.528743744E0,-1.976972103E0
7.116672408E0,-1.588766694E0,-1.370698929E0,-1.924198151E0
7.121690117E0,-1.403257847E0,-1.203297138E0,-1.977833748E0
7.126707825E0,-1.266259193E0,-1.021733761E0,-2.133075714E0
7.131725533E0,-1.162567496E0,-8.544263840E-1,-2.361398220E0
7.136743242E0,-1.072534204E0,-6.768817902E-1,-2.548372746E0
7.141760950E0,-1.005856037E0,-5.123267174E-1,-2.684958935E0
7.146778658E0,-1.010815978E0,-3.264045715E-1,-2.800478458E0
7.151796367E0,-1.054512620E0,-1.086616516E-1,-2.924244881E0
7.156814075E0,-1.084565639E0,1.033043861E-1,-3.099773884E0
7.161831783E0,-1.077020407E0,2.767057419E-1,-3.260558605E0
7.166849492E0,-1.055557728E0,4.361658096E-1,-3.431053638E0
7.171867252E0,-9.912124872E-1,5.919294357E-1,-3.501788139E0
7.176885012E0,-9.128527641E-1,7.350163460E-1,-3.458981991E0
7.181902773E0,-8.494536877E-1,8.994035721E-1,-3.365313530E0
7.186920533E0,-7.486085892E-1,1.013685226E0,-3.249817371E0
7.191938294E0,-6.151232719E-1,1.106892586E0,-3.103185177E0
7.196956054E0,-4.679358602E-1,1.179117203E0,-2.968585968E0
7.201973814E0,-3.065592349E-1,1.244714737E0,-2.783867836E0
7.206991575E0,-1.351961792E-1,1.270201206E0,-2.539568901E0
7.212009335E0,-1.082199812E-2,1.346341610E0,-2.206982136E0
7.217027096E0,9.081113338E-2,1.425038338E0,-1.824324131E0
7.222044856E0,1.843473911E-1,1.491521835E0,-1.396121502E0
7.227062617E0,2.315545678E-1,1.578835964E0,-9.555473328E-1
7.232080377E0,2.229332924E-1,1.643420219E0,-5.022201538E-1
7.237098137E0,1.442350149E-1,1.670497894E0,-6.448411942E-2
7.242115898E0,3.366661072E-2,1.740968227E0,3.389167786E-1
7.247133658E0,-1.040806174E-1,1.854338646E0,7.227282524E-1
7.252151419E0,-2.354266495E-1,1.933673382E0,1.058556080E0
7.257169179E0,-3.462345898E-1,1.973744869E0,1.318150997E0
7.262186939E0,-4.316883087E-1,1.969486713E0,1.554465771E0
7.267204700E0,-4.680489898E-1,1.968516827E0,1.805990219E0
7.272222460E0,-4.795804620E-1,1.951487064E0,2.039404869E0
7.277240221E0,-4.667869210E-1,1.989890575E0,2.341029167E0
7.282257981E0,-4.302173853E-1,2.069216251E0,2.648694515E0
7.287275742E0,-3.274467885E-1,2.112628460E0,2.948254108E0
7.292293502E0,-1.733938009E-1,2.139195442E0,3.268496037E0
7.297311262E0,-2.621482313E-2,2.211010456E0,3.623825550E0
7.302329023E0,1.033845395E-1,2.356448650E0,4.000061989E0
7.307346783E0,2.097891569E-1,2.450777531E0,4.258718491E0
7.312364544E0,3.358820081E-1,2.579894066E0,4.400123119E0
7.317382304E0,4.627996683E-1,2.714941025E0,4.472328663E0
7.322400064E0,5.522474051E-1,2.827232361E0,4.461083889E0
7.327417825E0,6.330308318E-1,2.936069012E0,4.399893761E0
7.332435585E0,7.101202607E-1,3.084847927E0,4.283811092E0
7.337453346E0,7.594666481E-1,3.206921101E0,4.136602402E0
7.342471106E0,8.049377203E-1,3.303015232E0,3.890878677E0
7.347488867E0,9.186565876E-1,3.297494411E0,3.541364670E0
7.352506627E0,1.077507615E0,3.148703575E0,3.015486717E0
7.357524387E0,1.278278470E0,2.892037392E0,2.379013538E0
7.362542148E0,1.484600663E0,2.525055408E0,1.855014801E0
7.367559908E0,1.664511800E0,2.203361988E0,1.465198517E0
7.372577669E0,1.761872768E0,1.857386589E0,1.389222145E0
7.377595429E0,1.715449929E0,1.493634224E0,1.476984024E0
7.382613189E0,1.507254124E0,1.070087910E0,1.713095188E0
7.387630950E0,1.186406612E0,4.430007935E-1,2.442026138E0
7.392648710E0,7.815037966E-1,-2.355332375E-1,3.477790356E0
7.397666471E0,1.967380047E-1,-5.468435287E-1,4.468104839E0
7.402684231E0,-4.677911103E-1,-7.380294800E-1,5.434518337E0
7.407701992E0,-1.040320516E0,-9.701910019E-1,6.193115234E0
7.412719752E0,-1.477861166E0,-1.275066376E0,6.679609299E0
7.417737512E0,-1.871417642E0,-1.559841156E0,6.886940002E0
7.422755273E0,-2.274365664E0,-1.726366520E0,6.884016991E0
7.427773033E0,-2.683215141E0,-1.786052227E0,6.743987083E0
7.432790794E0,-3.042699337E0,-1.744705677E0,6.434090614E0
7.437808554E0,-3.264001369E0,-1.669821262E0,6.002547264E0
7.442826314E0,-3.363527060E0,-1.561442375E0,5.502009392E0
7.447844023E0,-3.371641159E0,-1.457579136E0,4.951391220E0
7.452861731E0,-3.289814234E0,-1.381419182E0,4.331047058E0
7.457879439E0,-3.119143486E0,-1.341610909E0,3.635614395E0
7.462897148E0,-2.903093576E0,-1.293719769E0,2.825971603E0
7.467914856E0,-2.689186096E0,-1.269702435E0,1.925113678E0
7.472932564E0,-2.453115225E0,-1.291914940E0,1.042094231E0
7.477950273E0,-2.232441425E0,-1.334996700E0,2.285394669E-1
7.482967981E0,-2.031095505E0,-1.412196159E0,-4.972457886E-1
7.487985689E0,-1.872321129E0,-1.479421139E0,-1.126528740E0
7.493003398E0,-1.726961255E0,-1.559814930E0,-1.597836018E0
7.498021106E0,-1.589965105E0,-1.609763622E0,-1.997878551E0
7.503038814E0,-1.461187720E0,-1.638325214E0,-2.322400093E0
7.508056523E0,-1.345406771E0,-1.669116020E0,-2.581337452E0
7.513074231E0,-1.223372936E0,-1.730554104E0,-2.779793262E0
7.518091939E0,-1.080399156E0,-1.765225887E0,-2.922628880E0
7.523109648E0,-9.114023447E-1,-1.797219276E0,-2.966771603E0
7.528127356E0,-7.016718984E-1,-1.874457359E0,-2.974446297E0
7.533145064E0,-4.893260896E-1,-1.963707447E0,-2.916768074E0
7.538162773E0,-2.836102247E-1,-2.041379452E0,-2.855717182E0
7.543180481E0,-7.452163100E-2,-2.117593765E0,-2.719119072E0
7.548198189E0,1.044142991E-1,-2.202411652E0,-2.621435642E0
7.553215898E0,2.344947159E-1,-2.210231781E0,-2.581336975E0
7.558233606E0,3.976031542E-1,-2.275547028E0,-2.469216824E0
7.563251314E0,5.075127482E-1,-2.307623386E0,-2.418895721E0
7.568269023E0,5.552918315E-1,-2.268483162E0,-2.497051716E0
7.573286731E0,6.038678885E-1,-2.225447178E0,-2.569399357E0
7.578304439E0,6.059925556E-1,-2.207408428E0,-2.621454239E0
7.583322148E0,6.048780680E-1,-2.176109314E0,-2.677135944E0
7.588339856E0,5.817049742E-1,-2.136303902E0,-2.832146168E0
7.593357564E0,4.888195693E-1,-2.102210045E0,-3.033887863E0
7.598375273E0,3.840935528E-1,-2.016180515E0,-3.263419151E0
7.603392981E0,2.773201168E-1,-1.944951534E0,-3.410982132E0
7.608410689E0,1.587300003E-1,-1.806837559E0,-3.606132507E0
7.613428398E0,5.188882351E-2,-1.654241562E0,-3.762977839E0
7.618446106E0,-3.395682573E-2,-1.544260502E0,-3.958360672E0
7.623463814E0,-1.324068606E-1,-1.390447140E0,-4.149483681E0
7.628481523E0,-1.765547097E-1,-1.249786377E0,-4.322433472E0
7.633499231E0,-1.954176724E-1,-1.083669186E0,-4.487112522E0
7.638516939E0,-1.461207569E-1,-9.109663963E-1,-4.586422920E0
7.643534648E0,-8.661219478E-2,-7.458190918E-1,-4.682809830E0
7.648552356E0,2.600646019E-2,-6.452083588E-1,-4.728832245E0
7.653570064E0,1.248522401E-1,-5.706014633E-1,-4.724767685E0
7.658587773E0,1.811558604E-1,-4.836707115E-1,-4.665946007E0
7.663605481E0,2.380844951E-1,-4.465179443E-1,-4.581230164E0
7.668623189E0,2.576766610E-1,-4.448504448E-1,-4.446669579E0
7.673640950E0,2.159606814E-1,-4.212861061E-1,-4.219234943E0
7.678658710E0,1.127189994E-1,-4.047441483E-1,-3.941877842E0
7.683676471E0,-4.408240318E-3,-4.048972130E-1,-3.628869295E0
7.688694231E0,-1.212358475E-1,-4.363360405E-1,-3.346940041E0
7.693711992E0,-2.186291218E-1,-4.370779991E-1,-3.057568073E0
7.698729752E0,-2.632454336E-1,-4.073858261E-1,-2.660101891E0
7.703747512E0,-2.694661319E-1,-3.715987206E-1,-2.288216114E0
7.708765273E0,-2.612219453E-1,-3.586153984E-1,-1.941690445E0
7.713783033E0,-2.382705212E-1,-3.209362030E-1,-1.581927299E0
7.718800794E0,-1.810108125E-1,-2.875676155E-1,-1.266116619E0
7.723818554E0,-1.464505792E-1,-2.779855728E-1,-8.982753754E-1
7.728836314E0,-7.675075531E-2,-2.353267670E-1,-5.210595131E-1
7.733854075E0,1.397180557E-2,-1.602225304E-1,-1.913809776E-1
7.738871835E0,1.213712096E-1,-3.892898560E-2,1.342988014E-1
7.743889596E0,2.359173298E-1,8.020353317E-2,4.372444153E-1
7.748907356E0,3.719394803E-1,1.536474228E-1,7.322402000E-1
7.753925117E0,4.955441952E-1,2.527194023E-1,9.862561226E-1
7.758942877E0,6.156430840E-1,3.964366913E-1,1.218586922E0
7.763960637E0,7.123850584E-1,5.226020813E-1,1.391029358E0
7.768978398E0,8.424174786E-1,6.267652512E-1,1.498669147E0
7.773996158E0,9.619272351E-1,7.620711327E-1,1.608159542E0
7.779013919E0,1.113162756E0,9.146842957E-1,1.690391064E0
7.784031679E0,1.286108255E0,1.032368660E0,1.745091438E0
7.789049439E0,1.476049662E0,1.149106979E0,1.810145855E0
7.794067200E0,1.626032114E0,1.269946575E0,1.870929718E0
7.799084960E0,1.722259760E0,1.352105141E0,1.941524506E0
7.804102721E0,1.741449118E0,1.434088230E0,1.935619831E0
7.809120481E0,1.689603806E0,1.516219139E0,1.958151817E0
7.814138242E0,1.558221579E0,1.612740993E0,2.009098530E0
7.819156002E0,1.319699287E0,1.795321941E0,2.011871338E0
7.824173762E0,1.041734099E0,2.049431801E0,2.023947239E0
7.829191523E0,7.485878468E-1,2.317402363E0,2.031122208E0
7.834209283E0,4.593085647E-1,2.541597366E0,2.004940033E0
7.839227044E0,1.975072622E-1,2.750613213E0,1.893019199E0
7.844244804E0,-3.271785378E-2,2.906410694E0,1.800576687E0
7.849262564E0,-1.943477392E-1,3.123988628E0,1.694080830E0
7.854280325E0,-2.311562449E-1,3.389130116E0,1.563879013E0
7.859298085E0,-2.112521082E-1,3.673441887E0,1.342788696E0
7.864315846E0,-1.258468628E-1,3.862505913E0,1.035391808E0
7.869333606E0,2.410763502E-2,3.952430248E0,7.702584267E-1
7.874351367E0,2.419581115E-1,3.972916126E0,6.039762497E-1
7.879369127E0,5.066905022E-1,3.939592838E0,5.306186676E-1
7.884386887E0,8.308312893E-1,3.820174217E0,5.491175652E-1
7.889404648E0,1.285064459E0,3.553680897E0,6.584362984E-1
7.894422408E0,1.802293181E0,3.126773357E0,8.625655174E-1
7.899440169E0,2.259082079E0,2.611949444E0,1.213564396E0
7.904457929E0,2.503947496E0,2.110013485E0,1.725464821E0
7.909475689E0,2.572354794E0,1.615668297E0,2.422533989E0
7.914493450E0,2.610257387E0,1.108443737E0,3.200558186E0
7.919511210E0,2.600907564E0,5.674800873E-1,3.941390514E0
7.924528971E0,2.575264931E0,-1.383924484E-2,4.641821861E0
7.929546731E0,2.587907314E0,-6.232838631E-1,5.279666901E0
7.934564492E0,2.640197039E0,-1.172297001E0,5.851972103E0
7.939582200E0,2.656052351E0,-1.643888950E0,6.255101681E0
7.944599908E0,2.620612383E0,-1.920269012E0,6.466569424E0
7.949617617E0,2.509138346E0,-2.060258389E0,6.358322144E0
7.954635325E0,2.339834213E0,-2.117151260E0,5.959784031E0
7.959653033E0,2.083103180E0,-2.000516891E0,5.367181301E0
7.964670742E0,1.785817981E0,-1.935446262E0,4.709959507E0
7.969688450E0,1.523162842E0,-1.940587521E0,4.121851444E0
7.974706158E0,1.327461481E0,-1.890949726E0,3.444601536E0
7.979723867E0,1.173850298E0,-1.781214714E0,2.821416378E0
7.984741575E0,1.066166401E0,-1.639319420E0,2.179962635E0
7.989759283E0,1.079928637E0,-1.593422413E0,1.600913048E0
7.994776992E0,1.166329026E0,-1.646946907E0,9.637832642E-1
7.999794700E0,1.286647081E0,-1.726775169E0,3.394794464E-1
8.004812408E0,1.392934799E0,-1.750416279E0,-1.915755272E-1
8.009830117E0,1.509070873E0,-1.726398468E0,-6.733903885E-1
8.014847825E0,1.644672632E0,-1.739971161E0,-1.106727123E0
8.019865533E0,1.766467810E0,-1.804727077E0,-1.458754539E0
8.024883242E0,1.889672279E0,-1.896137238E0,-1.763574600E0
8.029900950E0,2.005532980E0,-2.032897949E0,-2.012094498E0
8.034918658E0,2.081444740E0,-2.176437855E0,-2.161652565E0
8.039936367E0,2.117862701E0,-2.326401234E0,-2.265345097E0
8.044954075E0,2.101014137E0,-2.434768677E0,-2.380864620E0
8.049971783E0,2.070509434E0,-2.535281181E0,-2.570358276E0
8.054989492E0,1.999050856E0,-2.661690474E0,-2.618490219E0
8.060007200E0,1.887387156E0,-2.718234301E0,-2.707372665E0
8.065024908E0,1.788892984E0,-2.738568544E0,-2.865708828E0
8.070042617E0,1.695161819E0,-2.832987547E0,-3.069466591E0
8.075060325E0,1.578419924E0,-2.891573191E0,-3.194256306E0
8.080078033E0,1.405732155E0,-2.895138502E0,-3.359923840E0
8.085095742E0,1.167520285E0,-2.848542929E0,-3.461204052E0
8.090113450E0,9.112979174E-1,-2.809315443E0,-3.541101933E0
8.095131158E0,6.605913639E-1,-2.782240152E0,-3.599564075E0
8.100148867E0,4.050855637E-1,-2.719664812E0,-3.650679588E0
8.105166575E0,1.918209195E-1,-2.660127401E0,-3.651076317E0
8.110184283E0,7.524490356E-4,-2.608678341E0,-3.643482685E0
8.115201992E0,-1.830089092E-1,-2.536898613E0,-3.661044121E0
8.120219700E0,-3.266524374E-1,-2.440305710E0,-3.636434078E0
8.125237408E0,-4.881008863E-1,-2.352707386E0,-3.578935623E0
8.130255117E0,-6.919001341E-1,-2.245682716E0,-3.531304836E0
8.135272825E0,-9.001189470E-1,-2.090735435E0,-3.474205494E0
8.140290533E0,-1.103508711E0,-1.926555157E0,-3.431216717E0
8.145308242E0,-1.283251524E0,-1.777435303E0,-3.354162216E0
8.150325950E0,-1.444427729E0,-1.624526978E0,-3.276299000E0
8.155343658E0,-1.601558208E0,-1.477751255E0,-3.202120304E0
8.160361367E0,-1.759685278E0,-1.299069405E0,-3.140996933E0
8.165379075E0,-1.900158644E0,-1.122268200E0,-3.044853210E0
8.170396835E0,-2.008923054E0,-9.330840111E-1,-2.971059322E0
8.175414596E0,-2.076643467E0,-7.507905960E-1,-2.914710999E0
8.180432356E0,-2.093794346E0,-5.562572479E-1,-2.894935608E0
8.185450117E0,-2.064982891E0,-3.830280304E-1,-2.978631020E0
8.190467877E0,-1.966137648E0,-2.356319427E-1,-3.079797268E0
8.195485637E0,-1.792524576E0,-1.088271141E-1,-3.217910767E0
8.200503398E0,-1.658858061E0,-1.149797440E-2,-3.374359608E0
8.205521158E0,-1.607827425E0,1.671237946E-1,-3.449328423E0
8.210538919E0,-1.582181811E0,4.227380753E-1,-3.424272537E0
8.215556679E0,-1.548680902E0,6.265463829E-1,-3.385753632E0
8.220574439E0,-1.468989134E0,7.406592369E-1,-3.300579071E0
8.225592200E0,-1.304714441E0,7.224187851E-1,-3.169050694E0
8.230609960E0,-1.175486565E0,7.776293755E-1,-2.804712296E0
8.235627721E0,-1.258553743E0,9.635000229E-1,-2.475582123E0
8.240645481E0,-1.319283128E0,1.107506275E0,-2.238841057E0
8.245663242E0,-1.218341112E0,1.156701565E0,-2.036679268E0
8.250681002E0,-1.131950617E0,1.239810944E0,-1.696485043E0
8.255698762E0,-1.141125202E0,1.365964413E0,-1.179851532E0
8.260716523E0,-1.212478518E0,1.534712791E0,-6.349163055E-1
8.265734283E0,-1.259818077E0,1.712170601E0,-1.140275002E-1
8.270752044E0,-1.211204529E0,1.821453094E0,2.587881088E-1
8.275769804E0,-1.065607071E0,1.852709293E0,6.274433136E-1
8.280787564E0,-9.568361640E-1,1.896693230E0,1.006457806E0
8.285805325E0,-8.800412416E-1,1.982114792E0,1.309704304E0
8.290823085E0,-7.971651554E-1,2.075551987E0,1.599372864E0
8.295840846E0,-7.278165817E-1,2.201260090E0,1.808254719E0
8.300858606E0,-6.580704451E-1,2.345242500E0,1.983965397E0
8.305876367E0,-5.551037788E-1,2.474431038E0,2.092737198E0
8.310894127E0,-4.143114984E-1,2.555638313E0,2.143998623E0
8.315911887E0,-2.884421945E-1,2.589074135E0,2.204651356E0
8.320929648E0,-1.970834285E-1,2.656415939E0,2.355736256E0
8.325947408E0,-1.697526127E-1,2.757700920E0,2.534927845E0
8.330965169E0,-2.261312753E-1,2.902456760E0,2.680032253E0
8.335982929E0,-3.523137569E-1,3.047190666E0,2.858394146E0
8.341000689E0,-5.009165406E-1,3.162735939E0,3.027340889E0
8.346018450E0,-6.482998133E-1,3.296394348E0,3.182584763E0
8.351036210E0,-7.562235594E-1,3.447751045E0,3.276661873E0
8.356053971E0,-8.102315664E-1,3.650144577E0,3.333672047E0
8.361071731E0,-7.768695354E-1,3.865343094E0,3.391871452E0
8.366089492E0,-7.039701939E-1,4.040808201E0,3.346003056E0
8.371107252E0,-6.153310537E-1,4.191256523E0,3.267693996E0
8.376125012E0,-4.685203135E-1,4.260029793E0,3.161249161E0
8.381142773E0,-2.213786393E-1,4.295948982E0,3.145602703E0
8.386160533E0,1.300522983E-1,4.023035049E0,3.109601021E0
8.391178294E0,4.550173283E-1,3.826033115E0,2.544699192E0
8.396196054E0,6.701620221E-1,3.886303425E0,3.952494144E0
8.401213814E0,1.492485762E0,3.132929802E0,4.776834488E0
8.406231575E0,2.128243446E0,2.477532864E0,3.333426476E0
8.411249335E0,2.235600710E0,1.939204216E0,3.464807987E0
8.416267096E0,1.788489103E0,1.439666748E0,4.357180119E0
8.421284856E0,1.505427480E0,5.706195831E-1,4.997110844E0
8.426302617E0,1.560358644E0,-2.960877419E-1,5.161271572E0
8.431320325E0,1.635200977E0,-1.004350185E0,5.410866737E0
8.436338033E0,1.462694049E0,-1.536729813E0,5.689487457E0
8.441355742E0,9.756130576E-1,-1.770378590E0,5.672933102E0
8.446373450E0,3.502249718E-1,-1.811899185E0,5.477250099E0
8.451391158E0,-2.576338947E-1,-1.862880707E0,5.131956100E0
8.456408867E0,-7.693985701E-1,-1.942587376E0,4.613712788E0
8.461426575E0,-1.144381046E0,-2.007937431E0,3.999463081E0
8.466444283E0,-1.370167732E0,-1.996546268E0,3.317991734E0
8.471461992E0,-1.529607773E0,-1.908330441E0,2.679346085E0
8.476479700E0,-1.657631159E0,-1.738055706E0,2.116614819E0
8.481497408E0,-1.736565948E0,-1.537858963E0,1.629347801E0
8.486515117E0,-1.781659484E0,-1.378825188E0,1.135649204E0
8.491532825E0,-1.778877378E0,-1.207597733E0,6.158494949E-1
8.496550533E0,-1.704271317E0,-1.047476292E0,5.989933014E-2
8.501568242E0,-1.595548868E0,-9.551658630E-1,-5.040445328E-1
8.506585950E0,-1.466115713E0,-9.538412094E-1,-1.057435513E0
8.511603658E0,-1.362844706E0,-9.951257706E-1,-1.567231178E0
8.516621367E0,-1.270918369E0,-1.054232597E0,-1.967234135E0
8.521639075E0,-1.161664963E0,-1.092200279E0,-2.286843300E0
8.526656783E0,-1.073431969E0,-1.160695553E0,-2.593918800E0
8.531674492E0,-1.011057615E0,-1.258915424E0,-2.850861549E0
8.536692200E0,-9.506239891E-1,-1.371829987E0,-3.010458946E0
8.541709908E0,-8.581488132E-1,-1.508559704E0,-3.111487865E0
8.546727617E0,-6.995102763E-1,-1.611495972E0,-3.049008846E0
8.551745325E0,-5.220160484E-1,-1.695198059E0,-2.847025871E0
8.556763033E0,-3.348636031E-1,-1.803224564E0,-2.505306721E0
8.561780742E0,-1.189838946E-1,-1.917064667E0,-2.104760170E0
8.566798450E0,8.268398046E-2,-2.018314362E0,-1.730914116E0
8.571816158E0,2.510967255E-1,-2.112751484E0,-1.378133774E0
8.576833867E0,3.482439518E-1,-2.148646832E0,-1.079161167E0
8.581851575E0,3.886765242E-1,-2.155592442E0,-7.950091362E-1
8.586869283E0,3.677651286E-1,-2.139151096E0,-5.537695885E-1
8.591886992E0,3.286787271E-1,-2.090536594E0,-3.739461899E-1
8.596904700E0,2.617053390E-1,-2.039058685E0,-2.502360344E-1
8.601922408E0,1.765369773E-1,-2.004386902E0,-1.774029732E-1
8.606940117E0,8.274173737E-2,-1.948689461E0,-1.837592125E-1
8.611957825E0,-5.766189098E-2,-1.872405529E0,-2.737188339E-1
8.616975533E0,-2.111046314E-1,-1.775824547E0,-3.561372757E-1
8.621993242E0,-3.876022696E-1,-1.663848877E0,-4.644103050E-1
8.627010950E0,-5.778688192E-1,-1.541303158E0,-6.415171623E-1
8.632028658E0,-7.774598002E-1,-1.412822247E0,-8.683419228E-1
8.637046367E0,-9.674118757E-1,-1.297387123E0,-1.149703979E0
8.642064075E0,-1.090285897E0,-1.185149193E0,-1.418782711E0
8.647081783E0,-1.155955553E0,-1.085355282E0,-1.685366154E0
8.652099492E0,-1.207939148E0,-9.592490196E-1,-1.944996357E0
8.657117200E0,-1.208122492E0,-8.159246445E-1,-2.231519699E0
8.662134908E0,-1.166494608E0,-6.931967735E-1,-2.506961346E0
8.667152617E0,-1.073685884E0,-5.858449936E-1,-2.752501011E0
8.672170377E0,-9.489404559E-1,-4.647169113E-1,-2.968504429E0
8.677188137E0,-8.018746972E-1,-3.294405937E-1,-3.164872646E0
8.682205898E0,-6.612734199E-1,-1.843786240E-1,-3.337185383E0
8.687223658E0,-5.223282576E-1,-6.258916855E-2,-3.471469879E0
8.692241419E0,-4.039546549E-1,2.186346054E-2,-3.524958611E0
8.697259179E0,-3.108404875E-1,1.122412682E-1,-3.473992348E0
8.702276939E0,-2.476643622E-1,1.847558022E-1,-3.414469719E0
8.707294700E0,-1.708907485E-1,2.394804955E-1,-3.384750843E0
8.712312460E0,-8.486747742E-2,2.478537560E-1,-3.298856735E0
8.717330221E0,-2.745252848E-2,2.434582710E-1,-3.128252506E0
8.722347981E0,-7.943928242E-3,2.358903885E-1,-2.949611664E0
8.727365742E0,2.628678083E-2,1.870083809E-1,-2.715223789E0
8.732383502E0,6.137847900E-2,1.444592476E-1,-2.463290215E0
8.737401262E0,1.266685128E-1,1.509380341E-1,-2.174498558E0
8.742419023E0,1.985722780E-1,1.869220734E-1,-1.848667145E0
8.747436783E0,2.919000983E-1,1.849989891E-1,-1.562070847E0
8.752454544E0,4.261843562E-1,1.878399849E-1,-1.271322250E0
8.757472304E0,5.730141401E-1,2.189249992E-1,-9.474186897E-1
8.762490064E0,6.892703176E-1,2.874050140E-1,-6.570343971E-1
8.767507825E0,8.272077441E-1,3.643832207E-1,-4.286484718E-1
8.772525585E0,9.533290267E-1,4.544920921E-1,-1.855406761E-1
8.777543346E0,1.081621647E0,5.576682091E-1,4.366397858E-2
8.782561106E0,1.206659555E0,7.027163506E-1,3.019967079E-1
8.787578867E0,1.346924782E0,8.178863525E-1,5.368585587E-1
8.792596627E0,1.501842022E0,9.369416237E-1,7.481360435E-1
8.797614387E0,1.699715614E0,9.833927155E-1,9.550013542E-1
8.802632148E0,1.887702823E0,1.024713039E0,1.204941273E0
8.807649908E0,2.012995720E0,1.094696999E0,1.468965054E0
8.812667669E0,2.099572182E0,1.212628365E0,1.809065819E0
8.817685429E0,2.099691391E0,1.321039200E0,2.148637772E0
8.822703189E0,2.028514862E0,1.434024334E0,2.454364777E0
8.827720950E0,1.910915971E0,1.498542309E0,2.702669621E0
8.832738710E0,1.728907824E0,1.571559906E0,2.984819889E0
8.837756471E0,1.454355955E0,1.690830231E0,3.258137226E0
8.842774231E0,1.121055245E0,1.898804665E0,3.460938931E0
8.847791992E0,7.576297522E-1,2.152129173E0,3.593547821E0
8.852809752E0,3.733112216E-1,2.416928768E0,3.603824139E0
8.857827512E0,3.905695677E-2,2.673803329E0,3.511397839E0
8.862845273E0,-2.030403912E-1,2.937265873E0,3.397688389E0
8.867863033E0,-3.305447996E-1,3.183822632E0,3.190754414E0
8.872880794E0,-4.025565088E-1,3.466791153E0,2.895012856E0
8.877898554E0,-4.156943262E-1,3.748702049E0,2.552953243E0
8.882916314E0,-3.232385516E-1,4.020957947E0,2.187707424E0
8.887934075E0,-1.646094769E-1,4.236664295E0,1.808045864E0
8.892951835E0,3.080451488E-2,4.406507015E0,1.427342892E0
8.897969596E0,2.715092599E-1,4.417052269E0,1.106563091E0
8.902987356E0,5.279628038E-1,4.250518799E0,8.397483826E-1
8.908005117E0,7.853301764E-1,3.889234066E0,6.543469429E-1
8.913022877E0,1.039080143E0,3.406371593E0,5.921478271E-1
8.918040585E0,1.294563055E0,2.889048100E0,6.808700562E-1
8.923058294E0,1.562966108E0,2.323433399E0,8.911800385E-1
8.928076002E0,1.904278994E0,1.690067291E0,1.376295090E0
8.933093710E0,2.225148678E0,1.040596485E0,2.189426899E0
8.938111419E0,2.561350822E0,3.830056190E-1,3.169004440E0
8.943129127E0,2.867417097E0,-2.849473953E-1,4.201997757E0
8.948146835E0,3.145325661E0,-8.892540932E-1,5.233081818E0
8.953164544E0,3.353409290E0,-1.394620419E0,6.154669285E0
8.958182252E0,3.430401564E0,-1.775120258E0,6.844697952E0
8.963199960E0,3.380857229E0,-2.061785698E0,7.262215614E0
8.968217669E0,3.189291716E0,-2.237179756E0,7.365880489E0
8.973235377E0,2.873395443E0,-2.292789936E0,7.070848465E0
8.978253085E0,2.460252762E0,-2.252904415E0,6.449676991E0
8.983270794E0,2.020078659E0,-2.189001560E0,5.626969337E0
8.988288502E0,1.670899391E0,-2.128918171E0,4.674168110E0
8.993306210E0,1.416336298E0,-2.066507339E0,3.595242977E0
8.998323919E0,1.217562199E0,-2.014594555E0,2.527874947E0
9.003341627E0,1.092917442E0,-1.985826492E0,1.432486534E0
9.008359335E0,1.066075563E0,-1.992874146E0,3.364462852E-1
9.013377044E0,1.094297886E0,-2.015083313E0,-6.611323357E-1
9.018394752E0,1.168334126E0,-2.041578770E0,-1.508962154E0
9.023412460E0,1.240597010E0,-2.066447735E0,-2.232228756E0
9.028430169E0,1.320803404E0,-2.079143524E0,-2.851203918E0
9.033447877E0,1.361581564E0,-2.055004597E0,-3.438603640E0
9.038465585E0,1.430819392E0,-2.089170933E0,-3.961710691E0
9.043483294E0,1.586294532E0,-2.181055546E0,-4.359084129E0
9.048501002E0,1.713767052E0,-2.291796207E0,-4.746360302E0
9.053518710E0,1.732875109E0,-2.411237717E0,-5.100410938E0
9.058536419E0,1.644686103E0,-2.510300159E0,-5.426638126E0
9.063554127E0,1.541269898E0,-2.593398571E0,-5.682626724E0
9.068571835E0,1.361456752E0,-2.622054100E0,-5.811470032E0
9.073589544E0,1.110728025E0,-2.692032814E0,-5.741604805E0
9.078607252E0,8.609889746E-1,-2.770059586E0,-5.501670361E0
9.083624960E0,6.215512753E-1,-2.890092850E0,-5.191684723E0
9.088642669E0,4.399426579E-1,-3.004956722E0,-4.834784508E0
9.093660377E0,2.870022058E-1,-3.110432863E0,-4.473320007E0
9.098678085E0,1.290122271E-1,-3.202458620E0,-4.135114670E0
9.103695794E0,-5.361628532E-2,-3.262547016E0,-3.776288033E0
9.108713502E0,-2.759300470E-1,-3.267644882E0,-3.410217285E0
9.113731210E0,-5.337109566E-1,-3.237557411E0,-3.088777065E0
9.118748919E0,-8.086556196E-1,-3.201788902E0,-2.825390816E0
9.123766627E0,-1.077510118E0,-3.151582241E0,-2.590460300E0
9.128784335E0,-1.317230344E0,-3.073194504E0,-2.369008064E0
9.133802044E0,-1.533389926E0,-2.962500095E0,-2.141313553E0
9.138819752E0,-1.741490245E0,-2.848789930E0,-1.921245098E0
9.143837460E0,-1.908929229E0,-2.684947729E0,-1.703446388E0
9.148855169E0,-2.055470467E0,-2.538593769E0,-1.578354836E0
9.153872877E0,-2.167205811E0,-2.367198944E0,-1.521600246E0
9.158890637E0,-2.244074345E0,-2.180702686E0,-1.528157711E0
9.163908398E0,-2.310116053E0,-1.965035915E0,-1.506979942E0
9.168926158E0,-2.327162266E0,-1.725276947E0,-1.567985058E0
9.173943919E0,-2.299796104E0,-1.475976467E0,-1.663197041E0
9.178961679E0,-2.160898447E0,-1.250668049E0,-1.783044815E0
9.183979439E0,-1.924220324E0,-1.058602333E0,-1.961269855E0
9.188997200E0,-1.675439000E0,-8.371891975E-1,-2.202929497E0
9.194014960E0,-1.457203746E0,-6.241335869E-1,-2.455845356E0
9.199032721E0,-1.269423008E0,-4.044790268E-1,-2.706155300E0
9.204050481E0,-1.107204795E0,-1.728510857E-1,-2.992622375E0
9.209068242E0,-9.416536689E-1,1.423120499E-2,-3.320718288E0
9.214086002E0,-7.726120949E-1,1.913018227E-1,-3.609932423E0
9.219103762E0,-5.809667110E-1,3.257751465E-1,-3.789320707E0
9.224121523E0,-3.765429258E-1,4.425301552E-1,-3.988926888E0
9.229139283E0,-1.973738968E-1,5.185871124E-1,-4.147339821E0
9.234157044E0,-5.737464875E-2,5.786576271E-1,-4.217438698E0
9.239174804E0,7.250129431E-2,6.281356812E-1,-4.195064545E0
9.244192564E0,1.639928967E-1,6.772341728E-1,-4.114348888E0
9.249210325E0,2.414920032E-1,7.167129517E-1,-3.889542818E0
9.254228085E0,2.908984423E-1,7.706298828E-1,-3.520907879E0
9.259245846E0,2.981767654E-1,8.340477943E-1,-3.027585983E0
9.264263606E0,2.300090045E-1,9.495468140E-1,-2.500157833E0
9.269281367E0,1.154912040E-1,1.106847286E0,-1.885447502E0
9.274299127E0,-2.175274305E-3,1.281253815E0,-1.225931168E0
9.279316887E0,-1.131368428E-1,1.476668835E0,-5.926332474E-1
9.284334648E0,-2.265289426E-1,1.648988247E0,1.058769226E-2
9.289352408E0,-3.228503466E-1,1.826006889E0,5.893278122E-1
9.294370169E0,-3.972855210E-1,1.997416019E0,1.120311260E0
9.299387929E0,-4.550666511E-1,2.153233528E0,1.603926659E0
9.304405689E0,-5.111421943E-1,2.278953075E0,2.035575390E0
9.309423450E0,-5.518001914E-1,2.393766880E0,2.434410572E0
9.314441210E0,-5.394224524E-1,2.459455967E0,2.786077976E0
9.319458971E0,-5.224593878E-1,2.504892826E0,3.162251472E0
9.324476731E0,-5.394026041E-1,2.491878510E0,3.462417603E0
9.329494492E0,-5.566623807E-1,2.453958035E0,3.763173103E0
9.334512252E0,-6.268192530E-1,2.391077042E0,4.078910828E0
9.339530012E0,-7.500570416E-1,2.336395741E0,4.400277138E0
9.344547773E0,-9.360821247E-1,2.270164967E0,4.718114853E0
9.349565533E0,-1.146891952E0,2.277654648E0,5.056903362E0
9.354583294E0,-1.349578142E0,2.381844521E0,5.364559650E0
9.359601054E0,-1.535501599E0,2.562543869E0,5.617809296E0
9.364618814E0,-1.614208221E0,2.766117096E0,5.664298058E0
9.369636575E0,-1.528286934E0,2.910822392E0,5.490208626E0
9.374654335E0,-1.373156786E0,2.987380505E0,5.196101189E0
9.379672096E0,-1.249326587E0,3.082611084E0,4.886878014E0
9.384689856E0,-1.142802477E0,3.178230286E0,4.566718102E0
9.389707617E0,-1.058415174E0,3.356544971E0,4.163192272E0
9.394725377E0,-9.439353347E-1,3.499026775E0,3.804714680E0
9.399743085E0,-7.421753407E-1,3.558988571E0,3.461748123E0
9.404760794E0,-5.107052922E-1,3.513757229E0,3.123882294E0
9.409778502E0,-2.398054004E-1,3.388547421E0,2.761562824E0
9.414796210E0,6.633496284E-2,3.112923145E0,2.350031376E0
9.419813919E0,3.612439334E-1,2.683569908E0,1.960154533E0
9.424831627E0,5.506902933E-1,2.226412296E0,1.624349594E0
9.429849335E0,6.120644808E-1,1.747474194E0,1.437283993E0
9.434867044E0,4.367225766E-1,1.439109325E0,1.264090538E0
9.439884752E0,4.084292352E-1,6.989793777E-1,1.616149902E0
9.444902460E0,2.356403768E-1,-2.360200882E-2,2.321270943E0
9.449920169E0,-1.916422695E-1,-4.196348190E-1,3.136549950E0
9.454937877E0,-6.538516283E-1,-6.062502861E-1,3.876837730E0
9.459955585E0,-9.361991882E-1,-8.154435158E-1,4.534308434E0
9.464973294E0,-1.019533277E0,-1.121413231E0,5.091778755E0
9.469991002E0,-9.851059914E-1,-1.435775757E0,5.484292984E0
9.475008710E0,-8.616875410E-1,-1.732065201E0,5.632314682E0
9.480026419E0,-8.023880124E-1,-1.839783669E0,5.542054176E0
9.485044127E0,-7.791635990E-1,-1.874800682E0,5.338699341E0
9.490061835E0,-7.695095539E-1,-1.885001183E0,5.027102470E0
9.495079544E0,-7.990387678E-1,-1.821974277E0,4.587801933E0
9.500097252E0,-8.883540630E-1,-1.703961372E0,3.981995583E0
9.505114960E0,-9.806127548E-1,-1.563430309E0,3.252205849E0
9.510132669E0,-1.018511534E0,-1.466289520E0,2.483963013E0
9.515150377E0,-1.016090512E0,-1.435486317E0,1.719786644E0
9.520168085E0,-1.054482460E0,-1.335918427E0,9.206752777E-1
9.525185794E0,-1.114374280E0,-1.257221699E0,1.383638382E-1
9.530203502E0,-1.167026997E0,-1.212367535E0,-6.090202332E-1
9.535221210E0,-1.188643813E0,-1.223985195E0,-1.255510807E0
9.540238919E0,-1.246118546E0,-1.147311687E0,-1.864365578E0
9.545256627E0,-1.277276278E0,-1.144113064E0,-2.359896183E0
9.550274335E0,-1.267936945E0,-1.189534664E0,-2.771672726E0
9.555292044E0,-1.265634894E0,-1.153920174E0,-3.128924847E0
9.560309752E0,-1.159902692E0,-1.252029896E0,-3.312656403E0
9.565327460E0,-1.017786384E0,-1.363999367E0,-3.457160473E0
9.570345169E0,-8.340830207E-1,-1.451578140E0,-3.481201172E0
9.575362877E0,-6.274820566E-1,-1.553111076E0,-3.408819675E0
9.580380585E0,-3.976224065E-1,-1.659317493E0,-3.230340481E0
9.585398294E0,-1.730604321E-1,-1.770689011E0,-2.969405174E0
9.590416002E0,7.487151027E-2,-1.887715816E0,-2.663967609E0
9.595433710E0,2.888950706E-1,-2.006223679E0,-2.413996220E0
9.600451419E0,4.453647733E-1,-2.117429733E0,-2.190075397E0
9.605469127E0,5.350412130E-1,-2.236432552E0,-1.972425938E0
9.610486835E0,6.153684855E-1,-2.325708389E0,-1.760431767E0
9.615504544E0,6.626831293E-1,-2.405048609E0,-1.639665127E0
9.620522252E0,6.581999063E-1,-2.470557928E0,-1.575843334E0
9.625539960E0,6.310743690E-1,-2.551619768E0,-1.554033756E0
9.630557669E0,5.865312815E-1,-2.610587120E0,-1.592839718E0
9.635575377E0,4.721437991E-1,-2.638303280E0,-1.658435345E0
9.640593085E0,3.262838125E-1,-2.625498772E0,-1.764957905E0
9.645610794E0,1.679128110E-1,-2.586656094E0,-1.893175125E0
9.650628502E0,-1.273521781E-2,-2.569587708E0,-2.023972988E0
9.655646262E0,-1.970356256E-1,-2.507220984E0,-2.181324482E0
9.660664023E0,-3.948327899E-1,-2.409085512E0,-2.370044231E0
9.665681783E0,-5.920395851E-1,-2.299120665E0,-2.633133888E0
9.670699544E0,-7.265659571E-1,-2.201112270E0,-2.884517670E0
9.675717304E0,-8.036203980E-1,-2.129208088E0,-3.119547367E0
9.680735064E0,-8.235080242E-1,-2.020823002E0,-3.362436295E0
9.685752825E0,-8.152517080E-1,-1.870917320E0,-3.594261646E0
9.690770585E0,-7.694368958E-1,-1.755805969E0,-3.805656433E0
9.695788346E0,-7.051972151E-1,-1.608239651E0,-3.982489347E0
9.700806106E0,-6.417225599E-1,-1.485477924E0,-4.158401012E0
9.705823867E0,-6.078484058E-1,-1.387197971E0,-4.300134659E0
9.710841627E0,-5.607039332E-1,-1.289052010E0,-4.427177429E0
9.715859387E0,-5.054172277E-1,-1.157154560E0,-4.525513649E0
9.720877148E0,-4.852708578E-1,-1.015182018E0,-4.571481228E0
9.725894908E0,-4.145312309E-1,-9.010424614E-1,-4.622814178E0
9.730912669E0,-3.315684497E-1,-7.952170372E-1,-4.641536713E0
9.735930429E0,-2.411114722E-1,-6.926436424E-1,-4.647047520E0
9.740948189E0,-1.475506425E-1,-5.835633278E-1,-4.601285458E0
9.745965950E0,-2.632907033E-2,-5.059924126E-1,-4.495008945E0
9.750983710E0,1.779288054E-2,-3.690762520E-1,-4.366548538E0
9.756001471E0,8.132129908E-2,-2.781548500E-1,-4.201606750E0
9.761019231E0,1.409980059E-1,-1.806559563E-1,-4.062387466E0
9.766036992E0,2.020579576E-1,-1.006650925E-1,-3.843559504E0
9.771054752E0,2.885751128E-1,-4.781150818E-2,-3.569093704E0
9.776072512E0,3.765995502E-1,2.578973770E-2,-3.258229256E0
9.781090273E0,4.613473415E-1,1.391162872E-1,-2.906135559E0
9.786108033E0,5.619922280E-1,2.393069267E-1,-2.574875355E0
9.791125794E0,6.689559221E-1,3.501310349E-1,-2.288207531E0
9.796143554E0,7.872687578E-1,4.808034897E-1,-1.959737778E0
9.801161314E0,8.834460974E-1,6.215758324E-1,-1.651561737E0
9.806179075E0,9.811914563E-1,7.531037331E-1,-1.334771156E0
9.811196835E0,1.089853764E0,8.945527077E-1,-1.028508186E0
9.816214596E0,1.180560589E0,1.036388874E0,-7.136554718E-1
9.821232356E0,1.267166138E0,1.212205887E0,-3.567919731E-1
9.826250117E0,1.330152035E0,1.383756161E0,1.333284378E-2
9.831267877E0,1.455212712E0,1.536684036E0,4.398050308E-1
9.836285637E0,1.584686875E0,1.632773399E0,8.412628174E-1
9.841303398E0,1.718717098E0,1.719770432E0,1.270459652E0
9.846321158E0,1.800165892E0,1.807120800E0,1.708316326E0
9.851338919E0,1.829702973E0,1.894685745E0,2.178788662E0
9.856356679E0,1.851253986E0,1.958061218E0,2.715628624E0
9.861374439E0,1.856073022E0,2.006137848E0,3.280984402E0
9.866392200E0,1.816280007E0,2.033298969E0,3.822819710E0
9.871409960E0,1.737251759E0,2.096118450E0,4.341786385E0
9.876427721E0,1.629098177E0,2.217537403E0,4.838615417E0
9.881445481E0,1.492008209E0,2.348860264E0,5.199194431E0
9.886463242E0,1.230463743E0,2.513329983E0,5.438589573E0
9.891480950E0,9.589291811E-1,2.772452354E0,5.614947319E0
9.896498658E0,6.862408519E-1,3.049101353E0,5.614115715E0
9.901516367E0,4.593483806E-1,3.295309544E0,5.422246933E0
9.906534075E0,3.249127269E-1,3.573559761E0,4.996525288E0
9.911551783E0,1.906057596E-1,3.798779488E0,4.393991947E0
9.916569492E0,8.870935440E-2,4.039309978E0,3.680912018E0
9.921587200E0,1.815956831E-2,4.287172794E0,2.884902000E0
9.926604908E0,-1.260995865E-2,4.515613556E0,2.066666603E0
9.931622617E0,-2.343618870E-2,4.688203812E0,1.296414375E0
9.936640325E0,1.802784204E-2,4.787790298E0,6.680588722E-1
9.941658033E0,6.255561113E-2,4.730254173E0,9.365129471E-2
9.946675742E0,1.473662257E-1,4.479402542E0,-4.047002792E-1
9.951693450E0,2.580681443E-1,4.099506855E0,-8.719315529E-1
9.956711158E0,3.954231143E-1,3.649850845E0,-1.061101437E0
9.961728867E0,6.944049001E-1,3.117261410E0,-7.392725945E-1
9.966746575E0,1.103567362E0,2.496865749E0,-1.210975647E-2
9.971764283E0,1.481372595E0,1.806592941E0,9.776306152E-1
9.976781992E0,1.767984986E0,1.077976227E0,2.159739971E0
9.981799700E0,1.998436689E0,4.426035881E-1,3.478780270E0
9.986817408E0,2.188339472E0,-1.263594627E-1,4.769693375E0
9.991835117E0,2.305410385E0,-6.032514572E-1,5.920217991E0
9.996852825E0,2.384219408E0,-1.082255840E0,6.847005367E0
1.000187053E1,2.363405704E0,-1.499507904E0,7.500068188E0
1.000688824E1,2.214495182E0,-1.771605968E0,7.896002769E0
1.001190595E1,1.965343714E0,-1.910193443E0,7.993499279E0
1.001692366E1,1.643071055E0,-1.935668945E0,7.755535126E0
1.002194137E1,1.322428465E0,-1.858016014E0,7.125417233E0
1.002695908E1,1.011703372E0,-1.724689007E0,6.208528519E0
1.003197678E1,7.625068426E-1,-1.635022163E0,5.157456875E0
1.003699449E1,7.318090200E-1,-1.639969349E0,3.966468811E0
1.004201220E1,7.799558640E-1,-1.680137634E0,2.734837055E0
1.004703105E1,7.350956798E-1,-1.681693554E0,1.441887856E0
1.005204840E1,6.885306239E-1,-1.647587299E0,4.449052811E-1
1.005706574E1,7.302326560E-1,-1.667058468E0,-4.729146957E-1
1.006208309E1,8.405269384E-1,-1.738372326E0,-1.370383739E0
1.006710043E1,9.669851065E-1,-1.855312347E0,-2.176983356E0
1.007211783E1,1.081257343E0,-1.968852043E0,-2.850844860E0
1.007713527E1,1.207869530E0,-2.063653469E0,-3.417036057E0
1.008215277E1,1.361796141E0,-2.143822193E0,-3.823847055E0
1.008717032E1,1.472184658E0,-2.242442131E0,-4.162898540E0
1.009218793E1,1.583441973E0,-2.345125675E0,-4.453659058E0
1.009720559E1,1.687517881E0,-2.485346317E0,-4.624711514E0
1.010222329E1,1.732726574E0,-2.605972290E0,-4.762193680E0
1.010724105E1,1.734548330E0,-2.730999231E0,-4.851921082E0
1.011225887E1,1.631731987E0,-2.827254057E0,-4.855546951E0
1.011727673E1,1.415023088E0,-2.832940817E0,-4.744191170E0
1.012229465E1,1.170356631E0,-2.844339132E0,-4.574851036E0
1.012731262E1,9.454359412E-1,-2.914586544E0,-4.385304451E0
1.013233064E1,7.543476224E-1,-2.996281147E0,-4.213294983E0
1.013734866E1,5.345653892E-1,-3.046983242E0,-4.053362370E0
1.014236668E1,2.905123830E-1,-3.062489033E0,-3.914457083E0
1.014738470E1,5.495840311E-2,-3.071949720E0,-3.748213530E0
1.015240272E1,-1.633551717E-1,-3.047012091E0,-3.616395473E0
1.015742074E1,-4.131160975E-1,-3.021613359E0,-3.513687611E0
1.016243850E1,-6.566815376E-1,-2.981723547E0,-3.410994530E0
1.016745626E1,-8.805727363E-1,-2.942013979E0,-3.274488926E0
1.017247397E1,-1.114168406E0,-2.869432449E0,-3.151631355E0
1.017749168E1,-1.310417414E0,-2.764316559E0,-3.018206120E0
1.018250939E1,-1.518006802E0,-2.631755829E0,-2.902679443E0
1.018752710E1,-1.689567089E0,-2.496024847E0,-2.776087761E0
1.019254480E1,-1.815854430E0,-2.333678484E0,-2.676369667E0
1.019756251E1,-1.892079115E0,-2.183392048E0,-2.622381210E0
1.020258022E1,-1.932507753E0,-2.021711349E0,-2.570716381E0
1.020759793E1,-1.937045813E0,-1.791528225E0,-2.549916744E0
1.021261564E1,-1.924709439E0,-1.545675278E0,-2.564672470E0
1.021763335E1,-1.847570658E0,-1.312927723E0,-2.619718075E0
1.022265105E1,-1.686254025E0,-1.093049049E0,-2.729568005E0
1.022766876E1,-1.473979473E0,-8.521637917E-1,-2.884926319E0
1.023268647E1,-1.248964667E0,-6.183910370E-1,-3.095789909E0
1.023770418E1,-1.039655209E0,-3.911256790E-1,-3.314751625E0
1.024272189E1,-8.361065388E-1,-1.504735947E-1,-3.532853603E0
1.024773960E1,-6.429303885E-1,8.036470413E-2,-3.760247231E0
1.025275730E1,-4.646931291E-1,2.638282776E-1,-3.954434156E0
1.025777501E1,-3.057605326E-1,4.486060143E-1,-4.101767540E0
1.026279272E1,-1.994261742E-1,6.210350990E-1,-4.169384480E0
1.026781043E1,-1.552184373E-1,8.059849739E-1,-4.191608906E0
1.027282814E1,-1.632724702E-1,1.004131794E0,-4.149922371E0
1.027784585E1,-2.089036703E-1,1.153832436E0,-4.030479431E0
1.028286355E1,-2.152080238E-1,1.241264820E0,-3.819375992E0
1.028788126E1,-3.109773397E-1,1.386296272E0,-3.492952824E0
